onset	duration	trial_type	sample	stim_file	subject	experiment	session	trial	task	item_name	item_num	recog_conf	resp	answer	test_x	test_y	test_z	color_b	color_g	color_r	case	font
234.316	n/a	SESS_START	117158	n/a	LTP089	ltpFR	9	n/a	n/a	n/a	n/a	5	n/a	n/a	0	0	0	n/a	n/a	n/a	n/a	n/a
261.968	n/a	START	130984	n/a	LTP089	ltpFR	9	n/a	n/a	n/a	n/a	n/a	n/a	n/a	n/a	n/a	n/a	n/a	n/a	n/a	n/a	n/a
261.994	n/a	PROB	130997	n/a	LTP089	ltpFR	9	n/a	n/a	n/a	n/a	n/a	n/a	4	1	2	1	n/a	n/a	n/a	n/a	n/a
264.136	n/a	PROB	132068	n/a	LTP089	ltpFR	9	n/a	n/a	n/a	n/a	n/a	n/a	17	9	7	3	n/a	n/a	n/a	n/a	n/a
266.602	n/a	PROB	133301	n/a	LTP089	ltpFR	9	n/a	n/a	n/a	n/a	n/a	n/a	15	7	1	7	n/a	n/a	n/a	n/a	n/a
270.46	n/a	PROB	135230	n/a	LTP089	ltpFR	9	n/a	n/a	n/a	n/a	n/a	n/a	6	2	1	3	n/a	n/a	n/a	n/a	n/a
272.46	n/a	PROB	136230	n/a	LTP089	ltpFR	9	n/a	n/a	n/a	n/a	n/a	n/a	14	1	9	4	n/a	n/a	n/a	n/a	n/a
274.16	n/a	PROB	137080	n/a	LTP089	ltpFR	9	n/a	n/a	n/a	n/a	n/a	n/a	15	9	1	5	n/a	n/a	n/a	n/a	n/a
275.876	n/a	PROB	137938	n/a	LTP089	ltpFR	9	n/a	n/a	n/a	n/a	n/a	n/a	23	6	8	9	n/a	n/a	n/a	n/a	n/a
280.528	n/a	STOP	140264	n/a	LTP089	ltpFR	9	n/a	n/a	n/a	n/a	n/a	n/a	n/a	n/a	n/a	n/a	n/a	n/a	n/a	n/a	n/a
306.002	n/a	WORD	153001	wordpools/wasnorm_wordpool.txt	LTP089	ltpFR	9	1	0	FISH	571	n/a	0	n/a	0	0	0	0	0.5869140625	0.422607421875	lower	../fonts/amplitud.ttf
309.976	n/a	WORD	154988	wordpools/wasnorm_wordpool.txt	LTP089	ltpFR	9	1	0	SHOE	1288	n/a	0	n/a	0	0	0	0	0.5869140625	0.422607421875	lower	../fonts/amplitud.ttf
313.86	n/a	WORD	156930	wordpools/wasnorm_wordpool.txt	LTP089	ltpFR	9	1	1	SERVANT	1271	n/a	1	n/a	0	0	0	1	0.412841796875	0.57763671875	upper	../fonts/zerothre.ttf
318.05	n/a	WORD	159025	wordpools/wasnorm_wordpool.txt	LTP089	ltpFR	9	1	1	ROOF	1205	n/a	0	n/a	0	0	0	1	0.412841796875	0.57763671875	upper	../fonts/zerothre.ttf
322.126	n/a	WORD	161063	wordpools/wasnorm_wordpool.txt	LTP089	ltpFR	9	1	0	CRAB	397	n/a	0	n/a	0	0	0	0	0.5869140625	0.422607421875	lower	../fonts/amplitud.ttf
326.108	n/a	WORD	163054	wordpools/wasnorm_wordpool.txt	LTP089	ltpFR	9	1	0	BOWL	158	n/a	0	n/a	0	0	0	0	0.5869140625	0.422607421875	lower	../fonts/amplitud.ttf
330.066	n/a	WORD	165033	wordpools/wasnorm_wordpool.txt	LTP089	ltpFR	9	1	0	MAN	862	n/a	0	n/a	0	0	0	0	0.5869140625	0.422607421875	lower	../fonts/amplitud.ttf
334.166	n/a	WORD	167083	wordpools/wasnorm_wordpool.txt	LTP089	ltpFR	9	1	0	WORKER	1621	n/a	0	n/a	0	0	0	0	0.5869140625	0.422607421875	lower	../fonts/amplitud.ttf
338.35	n/a	WORD	169175	wordpools/wasnorm_wordpool.txt	LTP089	ltpFR	9	1	0	LODGE	839	n/a	0	n/a	0	0	0	0	0.5869140625	0.422607421875	lower	../fonts/amplitud.ttf
342.334	n/a	WORD	171167	wordpools/wasnorm_wordpool.txt	LTP089	ltpFR	9	1	0	WITCH	1617	n/a	0	n/a	0	0	0	0	0.5869140625	0.422607421875	lower	../fonts/amplitud.ttf
346.19	n/a	WORD	173095	wordpools/wasnorm_wordpool.txt	LTP089	ltpFR	9	1	1	WAND	1586	n/a	1	n/a	0	0	0	1	0.412841796875	0.57763671875	upper	../fonts/zerothre.ttf
350.358	n/a	WORD	175179	wordpools/wasnorm_wordpool.txt	LTP089	ltpFR	9	1	1	SNEAKER	1334	n/a	0	n/a	0	0	0	1	0.412841796875	0.57763671875	upper	../fonts/zerothre.ttf
354.382	n/a	WORD	177191	wordpools/wasnorm_wordpool.txt	LTP089	ltpFR	9	1	1	PRIEST	1122	n/a	0	n/a	0	0	0	1	0.412841796875	0.57763671875	upper	../fonts/zerothre.ttf
358.382	n/a	WORD	179191	wordpools/wasnorm_wordpool.txt	LTP089	ltpFR	9	1	1	BANDIT	81	n/a	1	n/a	0	0	0	1	0.412841796875	0.57763671875	upper	../fonts/zerothre.ttf
362.566	n/a	WORD	181283	wordpools/wasnorm_wordpool.txt	LTP089	ltpFR	9	1	1	QUAIL	1147	n/a	1	n/a	0	0	0	1	0.412841796875	0.57763671875	upper	../fonts/zerothre.ttf
366.7	n/a	WORD	183350	wordpools/wasnorm_wordpool.txt	LTP089	ltpFR	9	1	1	PERCH	1048	n/a	1	n/a	0	0	0	1	0.412841796875	0.57763671875	upper	../fonts/zerothre.ttf
369.708	n/a	START	184854	n/a	LTP089	ltpFR	9	n/a	n/a	n/a	n/a	n/a	n/a	n/a	n/a	n/a	n/a	n/a	n/a	n/a	n/a	n/a
370.75	n/a	PROB	185375	n/a	LTP089	ltpFR	9	n/a	n/a	n/a	n/a	n/a	n/a	15	4	5	6	n/a	n/a	n/a	n/a	n/a
373.25	n/a	PROB	186625	n/a	LTP089	ltpFR	9	n/a	n/a	n/a	n/a	n/a	n/a	13	7	3	3	n/a	n/a	n/a	n/a	n/a
377.708	n/a	STOP	188854	n/a	LTP089	ltpFR	9	n/a	n/a	n/a	n/a	n/a	n/a	n/a	n/a	n/a	n/a	n/a	n/a	n/a	n/a	n/a
379.592	n/a	REC_START	189796	n/a	LTP089	ltpFR	9	1	n/a	n/a	n/a	n/a	n/a	n/a	0	0	0	n/a	n/a	n/a	n/a	n/a
382.332	n/a	REC_WORD	191166	wordpools/wasnorm_wordpool.txt	LTP089	ltpFR	9	1	0	FISH	571	n/a	0	n/a	0	0	0	n/a	n/a	n/a	n/a	n/a
383.114	n/a	REC_WORD	191557	wordpools/wasnorm_wordpool.txt	LTP089	ltpFR	9	1	0	SHOE	1288	n/a	0	n/a	0	0	0	n/a	n/a	n/a	n/a	n/a
384.166	n/a	REC_WORD	192083	wordpools/wasnorm_wordpool.txt	LTP089	ltpFR	9	1	1	QUAIL	1147	n/a	1	n/a	0	0	0	n/a	n/a	n/a	n/a	n/a
385.912	n/a	REC_WORD	192956	wordpools/wasnorm_wordpool.txt	LTP089	ltpFR	9	1	n/a	BIRD	129	n/a	n/a	n/a	0	0	0	n/a	n/a	n/a	n/a	n/a
388.782	n/a	REC_WORD	194391	wordpools/wasnorm_wordpool.txt	LTP089	ltpFR	9	1	1	PRIEST	1122	n/a	0	n/a	0	0	0	n/a	n/a	n/a	n/a	n/a
389.784	n/a	REC_WORD	194892	wordpools/wasnorm_wordpool.txt	LTP089	ltpFR	9	1	1	ROOF	1205	n/a	0	n/a	0	0	0	n/a	n/a	n/a	n/a	n/a
390.742	n/a	REC_WORD	195371	wordpools/wasnorm_wordpool.txt	LTP089	ltpFR	9	1	0	LODGE	839	n/a	0	n/a	0	0	0	n/a	n/a	n/a	n/a	n/a
486.88	n/a	START	243440	n/a	LTP089	ltpFR	9	n/a	n/a	n/a	n/a	n/a	n/a	n/a	n/a	n/a	n/a	n/a	n/a	n/a	n/a	n/a
488.388	n/a	PROB	244194	n/a	LTP089	ltpFR	9	n/a	n/a	n/a	n/a	n/a	n/a	16	5	5	6	n/a	n/a	n/a	n/a	n/a
489.962	n/a	PROB	244981	n/a	LTP089	ltpFR	9	n/a	n/a	n/a	n/a	n/a	n/a	11	2	8	1	n/a	n/a	n/a	n/a	n/a
494.88	n/a	STOP	247440	n/a	LTP089	ltpFR	9	n/a	n/a	n/a	n/a	n/a	n/a	n/a	n/a	n/a	n/a	n/a	n/a	n/a	n/a	n/a
495.738	n/a	WORD	247869	wordpools/wasnorm_wordpool.txt	LTP089	ltpFR	9	2	1	PHOTO	1055	n/a	0	n/a	0	0	0	1	0.412841796875	0.57763671875	upper	../fonts/zerothre.ttf
498.746	n/a	START	249373	n/a	LTP089	ltpFR	9	n/a	n/a	n/a	n/a	n/a	n/a	n/a	n/a	n/a	n/a	n/a	n/a	n/a	n/a	n/a
499.804	n/a	PROB	249902	n/a	LTP089	ltpFR	9	n/a	n/a	n/a	n/a	n/a	n/a	10	6	1	3	n/a	n/a	n/a	n/a	n/a
502.104	n/a	PROB	251052	n/a	LTP089	ltpFR	9	n/a	n/a	n/a	n/a	n/a	n/a	20	9	9	2	n/a	n/a	n/a	n/a	n/a
506.746	n/a	STOP	253373	n/a	LTP089	ltpFR	9	n/a	n/a	n/a	n/a	n/a	n/a	n/a	n/a	n/a	n/a	n/a	n/a	n/a	n/a	n/a
507.896	n/a	WORD	253948	wordpools/wasnorm_wordpool.txt	LTP089	ltpFR	9	2	1	RACCOON	1153	n/a	0	n/a	0	0	0	1	0.412841796875	0.57763671875	upper	../fonts/zerothre.ttf
510.904	n/a	START	255452	n/a	LTP089	ltpFR	9	n/a	n/a	n/a	n/a	n/a	n/a	n/a	n/a	n/a	n/a	n/a	n/a	n/a	n/a	n/a
511.988	n/a	PROB	255994	n/a	LTP089	ltpFR	9	n/a	n/a	n/a	n/a	n/a	n/a	12	3	8	1	n/a	n/a	n/a	n/a	n/a
514.438	n/a	PROB	257219	n/a	LTP089	ltpFR	9	n/a	n/a	n/a	n/a	n/a	n/a	21	6	9	6	n/a	n/a	n/a	n/a	n/a
517.38	n/a	PROB	258690	n/a	LTP089	ltpFR	9	n/a	n/a	n/a	n/a	n/a	n/a	12	4	6	2	n/a	n/a	n/a	n/a	n/a
518.788	n/a	STOP	259394	n/a	LTP089	ltpFR	9	n/a	n/a	n/a	n/a	n/a	n/a	n/a	n/a	n/a	n/a	n/a	n/a	n/a	n/a	n/a
520.038	n/a	WORD	260019	wordpools/wasnorm_wordpool.txt	LTP089	ltpFR	9	2	1	BIRD	129	n/a	0	n/a	0	0	0	1	0.412841796875	0.57763671875	upper	../fonts/zerothre.ttf
523.046	n/a	START	261523	n/a	LTP089	ltpFR	9	n/a	n/a	n/a	n/a	n/a	n/a	n/a	n/a	n/a	n/a	n/a	n/a	n/a	n/a	n/a
524.012	n/a	PROB	262006	n/a	LTP089	ltpFR	9	n/a	n/a	n/a	n/a	n/a	n/a	9	2	4	3	n/a	n/a	n/a	n/a	n/a
531.046	n/a	STOP	265523	n/a	LTP089	ltpFR	9	n/a	n/a	n/a	n/a	n/a	n/a	n/a	n/a	n/a	n/a	n/a	n/a	n/a	n/a	n/a
531.944	n/a	WORD	265972	wordpools/wasnorm_wordpool.txt	LTP089	ltpFR	9	2	1	ERASER	538	n/a	0	n/a	0	0	0	1	0.412841796875	0.57763671875	upper	../fonts/zerothre.ttf
534.946	n/a	START	267473	n/a	LTP089	ltpFR	9	n/a	n/a	n/a	n/a	n/a	n/a	n/a	n/a	n/a	n/a	n/a	n/a	n/a	n/a	n/a
535.97	n/a	PROB	267985	n/a	LTP089	ltpFR	9	n/a	n/a	n/a	n/a	n/a	n/a	9	2	6	1	n/a	n/a	n/a	n/a	n/a
538.02	n/a	PROB	269010	n/a	LTP089	ltpFR	9	n/a	n/a	n/a	n/a	n/a	n/a	19	7	4	8	n/a	n/a	n/a	n/a	n/a
540.654	n/a	PROB	270327	n/a	LTP089	ltpFR	9	n/a	n/a	n/a	n/a	n/a	n/a	15	7	3	5	n/a	n/a	n/a	n/a	n/a
542.326	n/a	STOP	271163	n/a	LTP089	ltpFR	9	n/a	n/a	n/a	n/a	n/a	n/a	n/a	n/a	n/a	n/a	n/a	n/a	n/a	n/a	n/a
543.986	n/a	WORD	271993	wordpools/wasnorm_wordpool.txt	LTP089	ltpFR	9	2	1	POSSUM	1112	n/a	0	n/a	0	0	0	1	0.412841796875	0.57763671875	upper	../fonts/zerothre.ttf
546.996	n/a	START	273498	n/a	LTP089	ltpFR	9	n/a	n/a	n/a	n/a	n/a	n/a	n/a	n/a	n/a	n/a	n/a	n/a	n/a	n/a	n/a
547.828	n/a	PROB	273914	n/a	LTP089	ltpFR	9	n/a	n/a	n/a	n/a	n/a	n/a	25	8	9	9	n/a	n/a	n/a	n/a	n/a
554.996	n/a	STOP	277498	n/a	LTP089	ltpFR	9	n/a	n/a	n/a	n/a	n/a	n/a	n/a	n/a	n/a	n/a	n/a	n/a	n/a	n/a	n/a
556.202	n/a	WORD	278101	wordpools/wasnorm_wordpool.txt	LTP089	ltpFR	9	2	1	ROOMMATE	1207	n/a	0	n/a	0	0	0	1	0.412841796875	0.57763671875	upper	../fonts/zerothre.ttf
559.21	n/a	START	279605	n/a	LTP089	ltpFR	9	n/a	n/a	n/a	n/a	n/a	n/a	n/a	n/a	n/a	n/a	n/a	n/a	n/a	n/a	n/a
560.168	n/a	PROB	280084	n/a	LTP089	ltpFR	9	n/a	n/a	n/a	n/a	n/a	n/a	15	3	7	5	n/a	n/a	n/a	n/a	n/a
561.678	n/a	PROB	280839	n/a	LTP089	ltpFR	9	n/a	n/a	n/a	n/a	n/a	n/a	14	4	7	3	n/a	n/a	n/a	n/a	n/a
567.206	n/a	STOP	283603	n/a	LTP089	ltpFR	9	n/a	n/a	n/a	n/a	n/a	n/a	n/a	n/a	n/a	n/a	n/a	n/a	n/a	n/a	n/a
568.176	n/a	WORD	284088	wordpools/wasnorm_wordpool.txt	LTP089	ltpFR	9	2	1	PARTNER	1017	n/a	0	n/a	0	0	0	1	0.412841796875	0.57763671875	upper	../fonts/zerothre.ttf
571.184	n/a	START	285592	n/a	LTP089	ltpFR	9	n/a	n/a	n/a	n/a	n/a	n/a	n/a	n/a	n/a	n/a	n/a	n/a	n/a	n/a	n/a
572.094	n/a	PROB	286047	n/a	LTP089	ltpFR	9	n/a	n/a	n/a	n/a	n/a	n/a	10	2	7	1	n/a	n/a	n/a	n/a	n/a
574.462	n/a	PROB	287231	n/a	LTP089	ltpFR	9	n/a	n/a	n/a	n/a	n/a	n/a	6	2	2	2	n/a	n/a	n/a	n/a	n/a
579.186	n/a	STOP	289593	n/a	LTP089	ltpFR	9	n/a	n/a	n/a	n/a	n/a	n/a	n/a	n/a	n/a	n/a	n/a	n/a	n/a	n/a	n/a
580.052	n/a	WORD	290026	wordpools/wasnorm_wordpool.txt	LTP089	ltpFR	9	2	1	PRODUCER	1129	n/a	0	n/a	0	0	0	1	0.412841796875	0.57763671875	upper	../fonts/zerothre.ttf
583.062	n/a	START	291531	n/a	LTP089	ltpFR	9	n/a	n/a	n/a	n/a	n/a	n/a	n/a	n/a	n/a	n/a	n/a	n/a	n/a	n/a	n/a
584.168	n/a	PROB	292084	n/a	LTP089	ltpFR	9	n/a	n/a	n/a	n/a	n/a	n/a	9	5	2	2	n/a	n/a	n/a	n/a	n/a
586.386	n/a	PROB	293193	n/a	LTP089	ltpFR	9	n/a	n/a	n/a	n/a	n/a	n/a	17	9	7	1	n/a	n/a	n/a	n/a	n/a
588.736	n/a	PROB	294368	n/a	LTP089	ltpFR	9	n/a	n/a	n/a	n/a	n/a	n/a	18	7	3	8	n/a	n/a	n/a	n/a	n/a
590.408	n/a	STOP	295204	n/a	LTP089	ltpFR	9	n/a	n/a	n/a	n/a	n/a	n/a	n/a	n/a	n/a	n/a	n/a	n/a	n/a	n/a	n/a
591.944	n/a	WORD	295972	wordpools/wasnorm_wordpool.txt	LTP089	ltpFR	9	2	1	JAW	751	n/a	0	n/a	0	0	0	1	0.412841796875	0.57763671875	upper	../fonts/zerothre.ttf
594.952	n/a	START	297476	n/a	LTP089	ltpFR	9	n/a	n/a	n/a	n/a	n/a	n/a	n/a	n/a	n/a	n/a	n/a	n/a	n/a	n/a	n/a
595.828	n/a	PROB	297914	n/a	LTP089	ltpFR	9	n/a	n/a	n/a	n/a	n/a	n/a	18	5	8	5	n/a	n/a	n/a	n/a	n/a
598.018	n/a	PROB	299009	n/a	LTP089	ltpFR	9	n/a	n/a	n/a	n/a	n/a	n/a	19	9	4	6	n/a	n/a	n/a	n/a	n/a
602.952	n/a	STOP	301476	n/a	LTP089	ltpFR	9	n/a	n/a	n/a	n/a	n/a	n/a	n/a	n/a	n/a	n/a	n/a	n/a	n/a	n/a	n/a
604.034	n/a	WORD	302017	wordpools/wasnorm_wordpool.txt	LTP089	ltpFR	9	2	1	GOOSE	649	n/a	0	n/a	0	0	0	1	0.412841796875	0.57763671875	upper	../fonts/zerothre.ttf
607.044	n/a	START	303522	n/a	LTP089	ltpFR	9	n/a	n/a	n/a	n/a	n/a	n/a	n/a	n/a	n/a	n/a	n/a	n/a	n/a	n/a	n/a
607.968	n/a	PROB	303984	n/a	LTP089	ltpFR	9	n/a	n/a	n/a	n/a	n/a	n/a	20	6	5	9	n/a	n/a	n/a	n/a	n/a
611.06	n/a	PROB	305530	n/a	LTP089	ltpFR	9	n/a	n/a	n/a	n/a	n/a	n/a	11	7	2	2	n/a	n/a	n/a	n/a	n/a
615.044	n/a	STOP	307522	n/a	LTP089	ltpFR	9	n/a	n/a	n/a	n/a	n/a	n/a	n/a	n/a	n/a	n/a	n/a	n/a	n/a	n/a	n/a
615.96	n/a	WORD	307980	wordpools/wasnorm_wordpool.txt	LTP089	ltpFR	9	2	1	DOLL	481	n/a	0	n/a	0	0	0	1	0.412841796875	0.57763671875	upper	../fonts/zerothre.ttf
618.96	n/a	START	309480	n/a	LTP089	ltpFR	9	n/a	n/a	n/a	n/a	n/a	n/a	n/a	n/a	n/a	n/a	n/a	n/a	n/a	n/a	n/a
619.884	n/a	PROB	309942	n/a	LTP089	ltpFR	9	n/a	n/a	n/a	n/a	n/a	n/a	7	2	4	1	n/a	n/a	n/a	n/a	n/a
622.368	n/a	PROB	311184	n/a	LTP089	ltpFR	9	n/a	n/a	n/a	n/a	n/a	n/a	14	9	2	3	n/a	n/a	n/a	n/a	n/a
626.96	n/a	STOP	313480	n/a	LTP089	ltpFR	9	n/a	n/a	n/a	n/a	n/a	n/a	n/a	n/a	n/a	n/a	n/a	n/a	n/a	n/a	n/a
627.984	n/a	WORD	313992	wordpools/wasnorm_wordpool.txt	LTP089	ltpFR	9	2	1	COLLEGE	346	n/a	0	n/a	0	0	0	1	0.412841796875	0.57763671875	upper	../fonts/zerothre.ttf
630.994	n/a	START	315497	n/a	LTP089	ltpFR	9	n/a	n/a	n/a	n/a	n/a	n/a	n/a	n/a	n/a	n/a	n/a	n/a	n/a	n/a	n/a
631.902	n/a	PROB	315951	n/a	LTP089	ltpFR	9	n/a	n/a	n/a	n/a	n/a	n/a	18	6	7	5	n/a	n/a	n/a	n/a	n/a
634.734	n/a	PROB	317367	n/a	LTP089	ltpFR	9	n/a	n/a	n/a	n/a	n/a	n/a	22	9	5	8	n/a	n/a	n/a	n/a	n/a
637.826	n/a	STOP	318913	n/a	LTP089	ltpFR	9	n/a	n/a	n/a	n/a	n/a	n/a	n/a	n/a	n/a	n/a	n/a	n/a	n/a	n/a	n/a
639.942	n/a	WORD	319971	wordpools/wasnorm_wordpool.txt	LTP089	ltpFR	9	2	1	CASH	252	n/a	0	n/a	0	0	0	1	0.412841796875	0.57763671875	upper	../fonts/zerothre.ttf
642.95	n/a	START	321475	n/a	LTP089	ltpFR	9	n/a	n/a	n/a	n/a	n/a	n/a	n/a	n/a	n/a	n/a	n/a	n/a	n/a	n/a	n/a
643.9	n/a	PROB	321950	n/a	LTP089	ltpFR	9	n/a	n/a	n/a	n/a	n/a	n/a	20	7	4	9	n/a	n/a	n/a	n/a	n/a
645.808	n/a	PROB	322904	n/a	LTP089	ltpFR	9	n/a	n/a	n/a	n/a	n/a	n/a	15	7	3	5	n/a	n/a	n/a	n/a	n/a
650.95	n/a	STOP	325475	n/a	LTP089	ltpFR	9	n/a	n/a	n/a	n/a	n/a	n/a	n/a	n/a	n/a	n/a	n/a	n/a	n/a	n/a	n/a
651.976	n/a	WORD	325988	wordpools/wasnorm_wordpool.txt	LTP089	ltpFR	9	2	1	RECORD	1176	n/a	0	n/a	0	0	0	1	0.412841796875	0.57763671875	upper	../fonts/zerothre.ttf
654.984	n/a	START	327492	n/a	LTP089	ltpFR	9	n/a	n/a	n/a	n/a	n/a	n/a	n/a	n/a	n/a	n/a	n/a	n/a	n/a	n/a	n/a
656.034	n/a	PROB	328017	n/a	LTP089	ltpFR	9	n/a	n/a	n/a	n/a	n/a	n/a	11	6	4	1	n/a	n/a	n/a	n/a	n/a
657.384	n/a	PROB	328692	n/a	LTP089	ltpFR	9	n/a	n/a	n/a	n/a	n/a	n/a	24	8	9	8	n/a	n/a	n/a	n/a	n/a
662.984	n/a	STOP	331492	n/a	LTP089	ltpFR	9	n/a	n/a	n/a	n/a	n/a	n/a	n/a	n/a	n/a	n/a	n/a	n/a	n/a	n/a	n/a
664.008	n/a	WORD	332004	wordpools/wasnorm_wordpool.txt	LTP089	ltpFR	9	2	1	FORT	595	n/a	0	n/a	0	0	0	1	0.412841796875	0.57763671875	upper	../fonts/zerothre.ttf
667.016	n/a	START	333508	n/a	LTP089	ltpFR	9	n/a	n/a	n/a	n/a	n/a	n/a	n/a	n/a	n/a	n/a	n/a	n/a	n/a	n/a	n/a
667.892	n/a	PROB	333946	n/a	LTP089	ltpFR	9	n/a	n/a	n/a	n/a	n/a	n/a	16	5	9	2	n/a	n/a	n/a	n/a	n/a
670.45	n/a	PROB	335225	n/a	LTP089	ltpFR	9	n/a	n/a	n/a	n/a	n/a	n/a	16	4	5	7	n/a	n/a	n/a	n/a	n/a
673.996	n/a	STOP	336998	n/a	LTP089	ltpFR	9	n/a	n/a	n/a	n/a	n/a	n/a	n/a	n/a	n/a	n/a	n/a	n/a	n/a	n/a	n/a
676.166	n/a	WORD	338083	wordpools/wasnorm_wordpool.txt	LTP089	ltpFR	9	2	1	TANK	1432	n/a	0	n/a	0	0	0	1	0.412841796875	0.57763671875	upper	../fonts/zerothre.ttf
679.174	n/a	START	339587	n/a	LTP089	ltpFR	9	n/a	n/a	n/a	n/a	n/a	n/a	n/a	n/a	n/a	n/a	n/a	n/a	n/a	n/a	n/a
680.174	n/a	PROB	340087	n/a	LTP089	ltpFR	9	n/a	n/a	n/a	n/a	n/a	n/a	15	5	4	6	n/a	n/a	n/a	n/a	n/a
682.9	n/a	PROB	341450	n/a	LTP089	ltpFR	9	n/a	n/a	n/a	n/a	n/a	n/a	13	8	4	1	n/a	n/a	n/a	n/a	n/a
685.74	n/a	STOP	342870	n/a	LTP089	ltpFR	9	n/a	n/a	n/a	n/a	n/a	n/a	n/a	n/a	n/a	n/a	n/a	n/a	n/a	n/a	n/a
689.042	n/a	REC_START	344521	n/a	LTP089	ltpFR	9	2	n/a	n/a	n/a	n/a	n/a	n/a	0	0	0	n/a	n/a	n/a	n/a	n/a
690.284	n/a	REC_WORD	345142	wordpools/wasnorm_wordpool.txt	LTP089	ltpFR	9	2	1	GOOSE	649	n/a	0	n/a	0	0	0	n/a	n/a	n/a	n/a	n/a
690.978	n/a	REC_WORD	345489	wordpools/wasnorm_wordpool.txt	LTP089	ltpFR	9	2	1	FORT	595	n/a	0	n/a	0	0	0	n/a	n/a	n/a	n/a	n/a
692.16	n/a	REC_WORD	346080	wordpools/wasnorm_wordpool.txt	LTP089	ltpFR	9	2	1	TANK	1432	n/a	0	n/a	0	0	0	n/a	n/a	n/a	n/a	n/a
695.362	n/a	REC_WORD	347681	wordpools/wasnorm_wordpool.txt	LTP089	ltpFR	9	2	n/a	PILLOW	1069	n/a	n/a	n/a	0	0	0	n/a	n/a	n/a	n/a	n/a
783.006	n/a	START	391503	n/a	LTP089	ltpFR	9	n/a	n/a	n/a	n/a	n/a	n/a	n/a	n/a	n/a	n/a	n/a	n/a	n/a	n/a	n/a
784.514	n/a	PROB	392257	n/a	LTP089	ltpFR	9	n/a	n/a	n/a	n/a	n/a	n/a	11	3	8	1	n/a	n/a	n/a	n/a	n/a
786.53	n/a	PROB	393265	n/a	LTP089	ltpFR	9	n/a	n/a	n/a	n/a	n/a	n/a	6	2	2	2	n/a	n/a	n/a	n/a	n/a
787.73	n/a	PROB	393865	n/a	LTP089	ltpFR	9	n/a	n/a	n/a	n/a	n/a	n/a	3	1	1	1	n/a	n/a	n/a	n/a	n/a
788.88	n/a	PROB	394440	n/a	LTP089	ltpFR	9	n/a	n/a	n/a	n/a	n/a	n/a	15	5	6	4	n/a	n/a	n/a	n/a	n/a
790.698	n/a	STOP	395349	n/a	LTP089	ltpFR	9	n/a	n/a	n/a	n/a	n/a	n/a	n/a	n/a	n/a	n/a	n/a	n/a	n/a	n/a	n/a
792.146	n/a	WORD	396073	wordpools/wasnorm_wordpool.txt	LTP089	ltpFR	9	3	0	HOUND	724	n/a	0	n/a	0	0	0	0	0.5869140625	0.422607421875	lower	../fonts/amplitud.ttf
795.154	n/a	START	397577	n/a	LTP089	ltpFR	9	n/a	n/a	n/a	n/a	n/a	n/a	n/a	n/a	n/a	n/a	n/a	n/a	n/a	n/a	n/a
796.08	n/a	PROB	398040	n/a	LTP089	ltpFR	9	n/a	n/a	n/a	n/a	n/a	n/a	18	4	9	7	n/a	n/a	n/a	n/a	n/a
798.688	n/a	PROB	399344	n/a	LTP089	ltpFR	9	n/a	n/a	n/a	n/a	n/a	n/a	15	8	5	2	n/a	n/a	n/a	n/a	n/a
800.604	n/a	PROB	400302	n/a	LTP089	ltpFR	9	n/a	n/a	n/a	n/a	n/a	n/a	18	6	5	7	n/a	n/a	n/a	n/a	n/a
802.738	n/a	STOP	401369	n/a	LTP089	ltpFR	9	n/a	n/a	n/a	n/a	n/a	n/a	n/a	n/a	n/a	n/a	n/a	n/a	n/a	n/a	n/a
804.088	n/a	WORD	402044	wordpools/wasnorm_wordpool.txt	LTP089	ltpFR	9	3	0	CARD	243	n/a	0	n/a	0	0	0	0	0.5869140625	0.422607421875	lower	../fonts/amplitud.ttf
807.096	n/a	START	403548	n/a	LTP089	ltpFR	9	n/a	n/a	n/a	n/a	n/a	n/a	n/a	n/a	n/a	n/a	n/a	n/a	n/a	n/a	n/a
808.13	n/a	PROB	404065	n/a	LTP089	ltpFR	9	n/a	n/a	n/a	n/a	n/a	n/a	16	4	3	8	n/a	n/a	n/a	n/a	n/a
810.83	n/a	PROB	405415	n/a	LTP089	ltpFR	9	n/a	n/a	n/a	n/a	n/a	n/a	12	1	5	8	n/a	n/a	n/a	n/a	n/a
814.076	n/a	STOP	407038	n/a	LTP089	ltpFR	9	n/a	n/a	n/a	n/a	n/a	n/a	n/a	n/a	n/a	n/a	n/a	n/a	n/a	n/a	n/a
816.112	n/a	WORD	408056	wordpools/wasnorm_wordpool.txt	LTP089	ltpFR	9	3	0	AMBULANCE	19	n/a	0	n/a	0	0	0	0	0.5869140625	0.422607421875	lower	../fonts/amplitud.ttf
819.112	n/a	START	409556	n/a	LTP089	ltpFR	9	n/a	n/a	n/a	n/a	n/a	n/a	n/a	n/a	n/a	n/a	n/a	n/a	n/a	n/a	n/a
820.03	n/a	PROB	410015	n/a	LTP089	ltpFR	9	n/a	n/a	n/a	n/a	n/a	n/a	15	2	9	4	n/a	n/a	n/a	n/a	n/a
822.496	n/a	PROB	411248	n/a	LTP089	ltpFR	9	n/a	n/a	n/a	n/a	n/a	n/a	13	3	8	2	n/a	n/a	n/a	n/a	n/a
827.112	n/a	STOP	413556	n/a	LTP089	ltpFR	9	n/a	n/a	n/a	n/a	n/a	n/a	n/a	n/a	n/a	n/a	n/a	n/a	n/a	n/a	n/a
828.196	n/a	WORD	414098	wordpools/wasnorm_wordpool.txt	LTP089	ltpFR	9	3	1	RANCH	1166	n/a	0	n/a	0	0	0	1	0.412841796875	0.57763671875	upper	../fonts/zerothre.ttf
831.204	n/a	START	415602	n/a	LTP089	ltpFR	9	n/a	n/a	n/a	n/a	n/a	n/a	n/a	n/a	n/a	n/a	n/a	n/a	n/a	n/a	n/a
832.12	n/a	PROB	416060	n/a	LTP089	ltpFR	9	n/a	n/a	n/a	n/a	n/a	n/a	19	8	2	9	n/a	n/a	n/a	n/a	n/a
833.996	n/a	PROB	416998	n/a	LTP089	ltpFR	9	n/a	n/a	n/a	n/a	n/a	n/a	11	1	9	1	n/a	n/a	n/a	n/a	n/a
835.628	n/a	PROB	417814	n/a	LTP089	ltpFR	9	n/a	n/a	n/a	n/a	n/a	n/a	20	5	9	6	n/a	n/a	n/a	n/a	n/a
838.892	n/a	STOP	419446	n/a	LTP089	ltpFR	9	n/a	n/a	n/a	n/a	n/a	n/a	n/a	n/a	n/a	n/a	n/a	n/a	n/a	n/a	n/a
840.036	n/a	WORD	420018	wordpools/wasnorm_wordpool.txt	LTP089	ltpFR	9	3	1	FRIEND	606	n/a	0	n/a	0	0	0	1	0.412841796875	0.57763671875	upper	../fonts/zerothre.ttf
843.038	n/a	START	421519	n/a	LTP089	ltpFR	9	n/a	n/a	n/a	n/a	n/a	n/a	n/a	n/a	n/a	n/a	n/a	n/a	n/a	n/a	n/a
843.97	n/a	PROB	421985	n/a	LTP089	ltpFR	9	n/a	n/a	n/a	n/a	n/a	n/a	22	9	7	6	n/a	n/a	n/a	n/a	n/a
847.53	n/a	PROB	423765	n/a	LTP089	ltpFR	9	n/a	n/a	n/a	n/a	n/a	n/a	15	9	2	4	n/a	n/a	n/a	n/a	n/a
850.886	n/a	STOP	425443	n/a	LTP089	ltpFR	9	n/a	n/a	n/a	n/a	n/a	n/a	n/a	n/a	n/a	n/a	n/a	n/a	n/a	n/a	n/a
852.228	n/a	WORD	426114	wordpools/wasnorm_wordpool.txt	LTP089	ltpFR	9	3	0	OLIVE	975	n/a	2	n/a	0	0	0	0	0.5869140625	0.422607421875	lower	../fonts/amplitud.ttf
852.662	n/a	KEY_MSG	426331	n/a	LTP089	ltpFR	9	3	n/a	n/a	n/a	n/a	n/a	n/a	0	0	0	n/a	n/a	n/a	n/a	n/a
855.236	n/a	START	427618	n/a	LTP089	ltpFR	9	n/a	n/a	n/a	n/a	n/a	n/a	n/a	n/a	n/a	n/a	n/a	n/a	n/a	n/a	n/a
856.144	n/a	PROB	428072	n/a	LTP089	ltpFR	9	n/a	n/a	n/a	n/a	n/a	n/a	9	1	2	6	n/a	n/a	n/a	n/a	n/a
859.004	n/a	PROB	429502	n/a	LTP089	ltpFR	9	n/a	n/a	n/a	n/a	n/a	n/a	16	8	5	3	n/a	n/a	n/a	n/a	n/a
862.222	n/a	STOP	431111	n/a	LTP089	ltpFR	9	n/a	n/a	n/a	n/a	n/a	n/a	n/a	n/a	n/a	n/a	n/a	n/a	n/a	n/a	n/a
864.062	n/a	WORD	432031	wordpools/wasnorm_wordpool.txt	LTP089	ltpFR	9	3	0	SIREN	1310	n/a	0	n/a	0	0	0	0	0.5869140625	0.422607421875	lower	../fonts/amplitud.ttf
867.07	n/a	START	433535	n/a	LTP089	ltpFR	9	n/a	n/a	n/a	n/a	n/a	n/a	n/a	n/a	n/a	n/a	n/a	n/a	n/a	n/a	n/a
867.954	n/a	PROB	433977	n/a	LTP089	ltpFR	9	n/a	n/a	n/a	n/a	n/a	n/a	12	1	3	9	n/a	n/a	n/a	n/a	n/a
870.428	n/a	PROB	435214	n/a	LTP089	ltpFR	9	n/a	n/a	n/a	n/a	n/a	n/a	19	2	8	9	n/a	n/a	n/a	n/a	n/a
875.07	n/a	STOP	437535	n/a	LTP089	ltpFR	9	n/a	n/a	n/a	n/a	n/a	n/a	n/a	n/a	n/a	n/a	n/a	n/a	n/a	n/a	n/a
876.168	n/a	WORD	438084	wordpools/wasnorm_wordpool.txt	LTP089	ltpFR	9	3	0	GUEST	669	n/a	0	n/a	0	0	0	0	0.5869140625	0.422607421875	lower	../fonts/amplitud.ttf
879.176	n/a	START	439588	n/a	LTP089	ltpFR	9	n/a	n/a	n/a	n/a	n/a	n/a	n/a	n/a	n/a	n/a	n/a	n/a	n/a	n/a	n/a
880.102	n/a	PROB	440051	n/a	LTP089	ltpFR	9	n/a	n/a	n/a	n/a	n/a	n/a	20	2	9	9	n/a	n/a	n/a	n/a	n/a
882.178	n/a	PROB	441089	n/a	LTP089	ltpFR	9	n/a	n/a	n/a	n/a	n/a	n/a	12	2	5	5	n/a	n/a	n/a	n/a	n/a
883.862	n/a	PROB	441931	n/a	LTP089	ltpFR	9	n/a	n/a	n/a	n/a	n/a	n/a	14	8	1	5	n/a	n/a	n/a	n/a	n/a
886.56	n/a	STOP	443280	n/a	LTP089	ltpFR	9	n/a	n/a	n/a	n/a	n/a	n/a	n/a	n/a	n/a	n/a	n/a	n/a	n/a	n/a	n/a
888.036	n/a	WORD	444018	wordpools/wasnorm_wordpool.txt	LTP089	ltpFR	9	3	0	MESSAGE	888	n/a	0	n/a	0	0	0	0	0.5869140625	0.422607421875	lower	../fonts/amplitud.ttf
891.044	n/a	START	445522	n/a	LTP089	ltpFR	9	n/a	n/a	n/a	n/a	n/a	n/a	n/a	n/a	n/a	n/a	n/a	n/a	n/a	n/a	n/a
892.07	n/a	PROB	446035	n/a	LTP089	ltpFR	9	n/a	n/a	n/a	n/a	n/a	n/a	21	9	9	9	n/a	n/a	n/a	n/a	n/a
896.044	n/a	PROB	448022	n/a	LTP089	ltpFR	9	n/a	n/a	n/a	n/a	n/a	n/a	16	6	1	9	n/a	n/a	n/a	n/a	n/a
898.72	n/a	STOP	449360	n/a	LTP089	ltpFR	9	n/a	n/a	n/a	n/a	n/a	n/a	n/a	n/a	n/a	n/a	n/a	n/a	n/a	n/a	n/a
900.176	n/a	WORD	450088	wordpools/wasnorm_wordpool.txt	LTP089	ltpFR	9	3	0	GOO	648	n/a	0	n/a	0	0	0	0	0.5869140625	0.422607421875	lower	../fonts/amplitud.ttf
903.178	n/a	START	451589	n/a	LTP089	ltpFR	9	n/a	n/a	n/a	n/a	n/a	n/a	n/a	n/a	n/a	n/a	n/a	n/a	n/a	n/a	n/a
904.218	n/a	PROB	452109	n/a	LTP089	ltpFR	9	n/a	n/a	n/a	n/a	n/a	n/a	6	1	2	3	n/a	n/a	n/a	n/a	n/a
906.294	n/a	PROB	453147	n/a	LTP089	ltpFR	9	n/a	n/a	n/a	n/a	n/a	n/a	10	1	7	2	n/a	n/a	n/a	n/a	n/a
908.336	n/a	PROB	454168	n/a	LTP089	ltpFR	9	n/a	n/a	n/a	n/a	n/a	n/a	12	2	5	5	n/a	n/a	n/a	n/a	n/a
909.648	n/a	STOP	454824	n/a	LTP089	ltpFR	9	n/a	n/a	n/a	n/a	n/a	n/a	n/a	n/a	n/a	n/a	n/a	n/a	n/a	n/a	n/a
912.028	n/a	WORD	456014	wordpools/wasnorm_wordpool.txt	LTP089	ltpFR	9	3	1	SUIT	1402	n/a	2	n/a	0	0	0	1	0.412841796875	0.57763671875	upper	../fonts/zerothre.ttf
912.336	n/a	KEY_MSG	456168	n/a	LTP089	ltpFR	9	3	n/a	n/a	n/a	n/a	n/a	n/a	0	0	0	n/a	n/a	n/a	n/a	n/a
915.036	n/a	START	457518	n/a	LTP089	ltpFR	9	n/a	n/a	n/a	n/a	n/a	n/a	n/a	n/a	n/a	n/a	n/a	n/a	n/a	n/a	n/a
915.986	n/a	PROB	457993	n/a	LTP089	ltpFR	9	n/a	n/a	n/a	n/a	n/a	n/a	11	4	1	6	n/a	n/a	n/a	n/a	n/a
918.634	n/a	PROB	459317	n/a	LTP089	ltpFR	9	n/a	n/a	n/a	n/a	n/a	n/a	16	7	7	2	n/a	n/a	n/a	n/a	n/a
923.036	n/a	STOP	461518	n/a	LTP089	ltpFR	9	n/a	n/a	n/a	n/a	n/a	n/a	n/a	n/a	n/a	n/a	n/a	n/a	n/a	n/a	n/a
924.21	n/a	WORD	462105	wordpools/wasnorm_wordpool.txt	LTP089	ltpFR	9	3	1	SHIRT	1287	n/a	0	n/a	0	0	0	1	0.412841796875	0.57763671875	upper	../fonts/zerothre.ttf
927.218	n/a	START	463609	n/a	LTP089	ltpFR	9	n/a	n/a	n/a	n/a	n/a	n/a	n/a	n/a	n/a	n/a	n/a	n/a	n/a	n/a	n/a
928.352	n/a	PROB	464176	n/a	LTP089	ltpFR	9	n/a	n/a	n/a	n/a	n/a	n/a	13	1	9	3	n/a	n/a	n/a	n/a	n/a
929.902	n/a	PROB	464951	n/a	LTP089	ltpFR	9	n/a	n/a	n/a	n/a	n/a	n/a	16	8	5	3	n/a	n/a	n/a	n/a	n/a
933.15	n/a	PROB	466575	n/a	LTP089	ltpFR	9	n/a	n/a	n/a	n/a	n/a	n/a	5	1	3	1	n/a	n/a	n/a	n/a	n/a
934.554	n/a	STOP	467277	n/a	LTP089	ltpFR	9	n/a	n/a	n/a	n/a	n/a	n/a	n/a	n/a	n/a	n/a	n/a	n/a	n/a	n/a	n/a
936.234	n/a	WORD	468117	wordpools/wasnorm_wordpool.txt	LTP089	ltpFR	9	3	1	PLANE	1081	n/a	0	n/a	0	0	0	1	0.412841796875	0.57763671875	upper	../fonts/zerothre.ttf
939.242	n/a	START	469621	n/a	LTP089	ltpFR	9	n/a	n/a	n/a	n/a	n/a	n/a	n/a	n/a	n/a	n/a	n/a	n/a	n/a	n/a	n/a
940.36	n/a	PROB	470180	n/a	LTP089	ltpFR	9	n/a	n/a	n/a	n/a	n/a	n/a	14	3	4	7	n/a	n/a	n/a	n/a	n/a
942.744	n/a	PROB	471372	n/a	LTP089	ltpFR	9	n/a	n/a	n/a	n/a	n/a	n/a	22	4	9	9	n/a	n/a	n/a	n/a	n/a
944.776	n/a	PROB	472388	n/a	LTP089	ltpFR	9	n/a	n/a	n/a	n/a	n/a	n/a	8	2	2	4	n/a	n/a	n/a	n/a	n/a
946.754	n/a	STOP	473377	n/a	LTP089	ltpFR	9	n/a	n/a	n/a	n/a	n/a	n/a	n/a	n/a	n/a	n/a	n/a	n/a	n/a	n/a	n/a
948.452	n/a	WORD	474226	wordpools/wasnorm_wordpool.txt	LTP089	ltpFR	9	3	1	BOXER	160	n/a	0	n/a	0	0	0	1	0.412841796875	0.57763671875	upper	../fonts/zerothre.ttf
951.46	n/a	START	475730	n/a	LTP089	ltpFR	9	n/a	n/a	n/a	n/a	n/a	n/a	n/a	n/a	n/a	n/a	n/a	n/a	n/a	n/a	n/a
952.6	n/a	PROB	476300	n/a	LTP089	ltpFR	9	n/a	n/a	n/a	n/a	n/a	n/a	12	6	1	5	n/a	n/a	n/a	n/a	n/a
955.334	n/a	PROB	477667	n/a	LTP089	ltpFR	9	n/a	n/a	n/a	n/a	n/a	n/a	16	9	4	3	n/a	n/a	n/a	n/a	n/a
958.604	n/a	STOP	479302	n/a	LTP089	ltpFR	9	n/a	n/a	n/a	n/a	n/a	n/a	n/a	n/a	n/a	n/a	n/a	n/a	n/a	n/a	n/a
960.342	n/a	WORD	480171	wordpools/wasnorm_wordpool.txt	LTP089	ltpFR	9	3	1	LITERATURE	831	n/a	0	n/a	0	0	0	1	0.412841796875	0.57763671875	upper	../fonts/zerothre.ttf
963.352	n/a	START	481676	n/a	LTP089	ltpFR	9	n/a	n/a	n/a	n/a	n/a	n/a	n/a	n/a	n/a	n/a	n/a	n/a	n/a	n/a	n/a
964.476	n/a	PROB	482238	n/a	LTP089	ltpFR	9	n/a	n/a	n/a	n/a	n/a	n/a	15	3	3	8	n/a	n/a	n/a	n/a	n/a
967.184	n/a	PROB	483592	n/a	LTP089	ltpFR	9	n/a	n/a	n/a	n/a	n/a	n/a	17	6	8	3	n/a	n/a	n/a	n/a	n/a
970.276	n/a	STOP	485138	n/a	LTP089	ltpFR	9	n/a	n/a	n/a	n/a	n/a	n/a	n/a	n/a	n/a	n/a	n/a	n/a	n/a	n/a	n/a
972.55	n/a	WORD	486275	wordpools/wasnorm_wordpool.txt	LTP089	ltpFR	9	3	1	WRITER	1627	n/a	0	n/a	0	0	0	1	0.412841796875	0.57763671875	upper	../fonts/zerothre.ttf
975.558	n/a	START	487779	n/a	LTP089	ltpFR	9	n/a	n/a	n/a	n/a	n/a	n/a	n/a	n/a	n/a	n/a	n/a	n/a	n/a	n/a	n/a
976.684	n/a	PROB	488342	n/a	LTP089	ltpFR	9	n/a	n/a	n/a	n/a	n/a	n/a	18	7	2	9	n/a	n/a	n/a	n/a	n/a
980.124	n/a	PROB	490062	n/a	LTP089	ltpFR	9	n/a	n/a	n/a	n/a	n/a	n/a	12	6	3	3	n/a	n/a	n/a	n/a	n/a
982.052	n/a	STOP	491026	n/a	LTP089	ltpFR	9	n/a	n/a	n/a	n/a	n/a	n/a	n/a	n/a	n/a	n/a	n/a	n/a	n/a	n/a	n/a
985.418	n/a	REC_START	492709	n/a	LTP089	ltpFR	9	3	n/a	n/a	n/a	n/a	n/a	n/a	0	0	0	n/a	n/a	n/a	n/a	n/a
987.796	n/a	REC_WORD	493898	wordpools/wasnorm_wordpool.txt	LTP089	ltpFR	9	3	1	WRITER	1627	n/a	0	n/a	0	0	0	n/a	n/a	n/a	n/a	n/a
988.974	n/a	REC_WORD	494487	wordpools/wasnorm_wordpool.txt	LTP089	ltpFR	9	3	0	GOO	648	n/a	0	n/a	0	0	0	n/a	n/a	n/a	n/a	n/a
996.418	n/a	REC_WORD	498209	wordpools/wasnorm_wordpool.txt	LTP089	ltpFR	9	3	n/a	SHOP	1290	n/a	n/a	n/a	0	0	0	n/a	n/a	n/a	n/a	n/a
1080.064	n/a	WORD	540032	wordpools/wasnorm_wordpool.txt	LTP089	ltpFR	9	4	1	ASHTRAY	45	n/a	0	n/a	0	0	0	1	0.412841796875	0.57763671875	upper	../fonts/zerothre.ttf
1084.204	n/a	WORD	542102	wordpools/wasnorm_wordpool.txt	LTP089	ltpFR	9	4	1	CARPENTER	246	n/a	0	n/a	0	0	0	1	0.412841796875	0.57763671875	upper	../fonts/zerothre.ttf
1088.03	n/a	WORD	544015	wordpools/wasnorm_wordpool.txt	LTP089	ltpFR	9	4	1	STALLION	1369	n/a	1	n/a	0	0	0	1	0.412841796875	0.57763671875	upper	../fonts/zerothre.ttf
1092.222	n/a	WORD	546111	wordpools/wasnorm_wordpool.txt	LTP089	ltpFR	9	4	1	COMEDIAN	352	n/a	1	n/a	0	0	0	1	0.412841796875	0.57763671875	upper	../fonts/zerothre.ttf
1096.414	n/a	WORD	548207	wordpools/wasnorm_wordpool.txt	LTP089	ltpFR	9	4	1	WALL	1582	n/a	1	n/a	0	0	0	1	0.412841796875	0.57763671875	upper	../fonts/zerothre.ttf
1100.506	n/a	WORD	550253	wordpools/wasnorm_wordpool.txt	LTP089	ltpFR	9	4	1	TENT	1449	n/a	0	n/a	0	0	0	1	0.412841796875	0.57763671875	upper	../fonts/zerothre.ttf
1104.514	n/a	WORD	552257	wordpools/wasnorm_wordpool.txt	LTP089	ltpFR	9	4	1	BALLOT	76	n/a	0	n/a	0	0	0	1	0.412841796875	0.57763671875	upper	../fonts/zerothre.ttf
1108.414	n/a	WORD	554207	wordpools/wasnorm_wordpool.txt	LTP089	ltpFR	9	4	1	REGISTER	1180	n/a	0	n/a	0	0	0	1	0.412841796875	0.57763671875	upper	../fonts/zerothre.ttf
1112.464	n/a	WORD	556232	wordpools/wasnorm_wordpool.txt	LTP089	ltpFR	9	4	1	ASH	44	n/a	0	n/a	0	0	0	1	0.412841796875	0.57763671875	upper	../fonts/zerothre.ttf
1116.48	n/a	WORD	558240	wordpools/wasnorm_wordpool.txt	LTP089	ltpFR	9	4	1	PEBBLE	1035	n/a	0	n/a	0	0	0	1	0.412841796875	0.57763671875	upper	../fonts/zerothre.ttf
1120.672	n/a	WORD	560336	wordpools/wasnorm_wordpool.txt	LTP089	ltpFR	9	4	1	BARN	89	n/a	0	n/a	0	0	0	1	0.412841796875	0.57763671875	upper	../fonts/zerothre.ttf
1124.714	n/a	WORD	562357	wordpools/wasnorm_wordpool.txt	LTP089	ltpFR	9	4	1	BLUEPRINT	142	n/a	0	n/a	0	0	0	1	0.412841796875	0.57763671875	upper	../fonts/zerothre.ttf
1128.772	n/a	WORD	564386	wordpools/wasnorm_wordpool.txt	LTP089	ltpFR	9	4	1	OFFICER	973	n/a	0	n/a	0	0	0	1	0.412841796875	0.57763671875	upper	../fonts/zerothre.ttf
1132.888	n/a	WORD	566444	wordpools/wasnorm_wordpool.txt	LTP089	ltpFR	9	4	1	SHERIFF	1284	n/a	1	n/a	0	0	0	1	0.412841796875	0.57763671875	upper	../fonts/zerothre.ttf
1136.722	n/a	WORD	568361	wordpools/wasnorm_wordpool.txt	LTP089	ltpFR	9	4	1	MATTRESS	879	n/a	1	n/a	0	0	0	1	0.412841796875	0.57763671875	upper	../fonts/zerothre.ttf
1140.738	n/a	WORD	570369	wordpools/wasnorm_wordpool.txt	LTP089	ltpFR	9	4	1	SAND	1230	n/a	0	n/a	0	0	0	1	0.412841796875	0.57763671875	upper	../fonts/zerothre.ttf
1143.738	n/a	START	571869	n/a	LTP089	ltpFR	9	n/a	n/a	n/a	n/a	n/a	n/a	n/a	n/a	n/a	n/a	n/a	n/a	n/a	n/a	n/a
1144.58	n/a	PROB	572290	n/a	LTP089	ltpFR	9	n/a	n/a	n/a	n/a	n/a	n/a	18	7	6	5	n/a	n/a	n/a	n/a	n/a
1151.738	n/a	STOP	575869	n/a	LTP089	ltpFR	9	n/a	n/a	n/a	n/a	n/a	n/a	n/a	n/a	n/a	n/a	n/a	n/a	n/a	n/a	n/a
1153.488	n/a	REC_START	576744	n/a	LTP089	ltpFR	9	4	n/a	n/a	n/a	n/a	n/a	n/a	0	0	0	n/a	n/a	n/a	n/a	n/a
1156.9	n/a	REC_WORD	578450	wordpools/wasnorm_wordpool.txt	LTP089	ltpFR	9	4	1	ASHTRAY	45	n/a	0	n/a	0	0	0	n/a	n/a	n/a	n/a	n/a
1157.694	n/a	REC_WORD	578847	wordpools/wasnorm_wordpool.txt	LTP089	ltpFR	9	4	1	CARPENTER	246	n/a	0	n/a	0	0	0	n/a	n/a	n/a	n/a	n/a
1158.552	n/a	REC_WORD	579276	wordpools/wasnorm_wordpool.txt	LTP089	ltpFR	9	4	1	COMEDIAN	352	n/a	1	n/a	0	0	0	n/a	n/a	n/a	n/a	n/a
1159.51	n/a	REC_WORD	579755	wordpools/wasnorm_wordpool.txt	LTP089	ltpFR	9	4	n/a	CLOWN	330	n/a	n/a	n/a	0	0	0	n/a	n/a	n/a	n/a	n/a
1160.242	n/a	REC_WORD	580121	wordpools/wasnorm_wordpool.txt	LTP089	ltpFR	9	4	1	STALLION	1369	n/a	1	n/a	0	0	0	n/a	n/a	n/a	n/a	n/a
1161.918	n/a	REC_WORD	580959	wordpools/wasnorm_wordpool.txt	LTP089	ltpFR	9	4	1	BARN	89	n/a	0	n/a	0	0	0	n/a	n/a	n/a	n/a	n/a
1162.852	n/a	REC_WORD	581426	wordpools/wasnorm_wordpool.txt	LTP089	ltpFR	9	4	1	WALL	1582	n/a	1	n/a	0	0	0	n/a	n/a	n/a	n/a	n/a
1163.606	n/a	REC_WORD	581803	wordpools/wasnorm_wordpool.txt	LTP089	ltpFR	9	4	1	TENT	1449	n/a	0	n/a	0	0	0	n/a	n/a	n/a	n/a	n/a
1195.306	n/a	REC_WORD	597653	wordpools/wasnorm_wordpool.txt	LTP089	ltpFR	9	4	1	BALLOT	76	n/a	0	n/a	0	0	0	n/a	n/a	n/a	n/a	n/a
1243.426	n/a	WORD	621713	wordpools/wasnorm_wordpool.txt	LTP089	ltpFR	9	5	0	OINTMENT	974	n/a	2	n/a	0	0	0	0	0.5869140625	0.422607421875	lower	../fonts/amplitud.ttf
1244.91	n/a	KEY_MSG	622455	n/a	LTP089	ltpFR	9	5	n/a	n/a	n/a	n/a	n/a	n/a	0	0	0	n/a	n/a	n/a	n/a	n/a
1247.468	n/a	WORD	623734	wordpools/wasnorm_wordpool.txt	LTP089	ltpFR	9	5	0	SEA	1259	n/a	0	n/a	0	0	0	0	0.5869140625	0.422607421875	lower	../fonts/amplitud.ttf
1251.46	n/a	WORD	625730	wordpools/wasnorm_wordpool.txt	LTP089	ltpFR	9	5	0	RAFT	1159	n/a	1	n/a	0	0	0	0	0.5869140625	0.422607421875	lower	../fonts/amplitud.ttf
1255.336	n/a	WORD	627668	wordpools/wasnorm_wordpool.txt	LTP089	ltpFR	9	5	1	SPINACH	1352	n/a	2	n/a	0	0	0	1	0.412841796875	0.57763671875	upper	../fonts/zerothre.ttf
1256.494	n/a	KEY_MSG	628247	n/a	LTP089	ltpFR	9	5	n/a	n/a	n/a	n/a	n/a	n/a	0	0	0	n/a	n/a	n/a	n/a	n/a
1259.208	n/a	WORD	629604	wordpools/wasnorm_wordpool.txt	LTP089	ltpFR	9	5	1	WILDERNESS	1610	n/a	0	n/a	0	0	0	1	0.412841796875	0.57763671875	upper	../fonts/zerothre.ttf
1263.284	n/a	WORD	631642	wordpools/wasnorm_wordpool.txt	LTP089	ltpFR	9	5	1	POLYESTER	1100	n/a	0	n/a	0	0	0	1	0.412841796875	0.57763671875	upper	../fonts/zerothre.ttf
1267.184	n/a	WORD	633592	wordpools/wasnorm_wordpool.txt	LTP089	ltpFR	9	5	1	DEER	444	n/a	0	n/a	0	0	0	1	0.412841796875	0.57763671875	upper	../fonts/zerothre.ttf
1271.018	n/a	WORD	635509	wordpools/wasnorm_wordpool.txt	LTP089	ltpFR	9	5	1	DUNE	506	n/a	0	n/a	0	0	0	1	0.412841796875	0.57763671875	upper	../fonts/zerothre.ttf
1274.852	n/a	WORD	637426	wordpools/wasnorm_wordpool.txt	LTP089	ltpFR	9	5	1	KEG	770	n/a	0	n/a	0	0	0	1	0.412841796875	0.57763671875	upper	../fonts/zerothre.ttf
1278.96	n/a	WORD	639480	wordpools/wasnorm_wordpool.txt	LTP089	ltpFR	9	5	0	CHAMPAGNE	278	n/a	1	n/a	0	0	0	0	0.5869140625	0.422607421875	lower	../fonts/amplitud.ttf
1283.0	n/a	WORD	641500	wordpools/wasnorm_wordpool.txt	LTP089	ltpFR	9	5	0	DIRECTOR	471	n/a	1	n/a	0	0	0	0	0.5869140625	0.422607421875	lower	../fonts/amplitud.ttf
1286.942	n/a	WORD	643471	wordpools/wasnorm_wordpool.txt	LTP089	ltpFR	9	5	0	ACTRESS	6	n/a	1	n/a	0	0	0	0	0.5869140625	0.422607421875	lower	../fonts/amplitud.ttf
1290.768	n/a	WORD	645384	wordpools/wasnorm_wordpool.txt	LTP089	ltpFR	9	5	1	ANTEATER	26	n/a	3	n/a	0	0	0	1	0.412841796875	0.57763671875	upper	../fonts/zerothre.ttf
1291.518	n/a	KEY_MSG	645759	n/a	LTP089	ltpFR	9	5	n/a	n/a	n/a	n/a	n/a	n/a	0	0	0	n/a	n/a	n/a	n/a	n/a
1294.734	n/a	WORD	647367	wordpools/wasnorm_wordpool.txt	LTP089	ltpFR	9	5	1	MEDICINE	886	n/a	1	n/a	0	0	0	1	0.412841796875	0.57763671875	upper	../fonts/zerothre.ttf
1298.708	n/a	WORD	649354	wordpools/wasnorm_wordpool.txt	LTP089	ltpFR	9	5	0	STREET	1393	n/a	0	n/a	0	0	0	0	0.5869140625	0.422607421875	lower	../fonts/amplitud.ttf
1302.616	n/a	WORD	651308	wordpools/wasnorm_wordpool.txt	LTP089	ltpFR	9	5	0	BLUEJAY	141	n/a	0	n/a	0	0	0	0	0.5869140625	0.422607421875	lower	../fonts/amplitud.ttf
1305.624	n/a	START	652812	n/a	LTP089	ltpFR	9	n/a	n/a	n/a	n/a	n/a	n/a	n/a	n/a	n/a	n/a	n/a	n/a	n/a	n/a	n/a
1306.626	n/a	PROB	653313	n/a	LTP089	ltpFR	9	n/a	n/a	n/a	n/a	n/a	n/a	16	9	6	1	n/a	n/a	n/a	n/a	n/a
1308.9	n/a	PROB	654450	n/a	LTP089	ltpFR	9	n/a	n/a	n/a	n/a	n/a	n/a	23	9	5	9	n/a	n/a	n/a	n/a	n/a
1311.2	n/a	PROB	655600	n/a	LTP089	ltpFR	9	n/a	n/a	n/a	n/a	n/a	n/a	21	5	7	9	n/a	n/a	n/a	n/a	n/a
1313.766	n/a	PROB	656883	n/a	LTP089	ltpFR	9	n/a	n/a	n/a	n/a	n/a	n/a	25	9	7	9	n/a	n/a	n/a	n/a	n/a
1316.466	n/a	PROB	658233	n/a	LTP089	ltpFR	9	n/a	n/a	n/a	n/a	n/a	n/a	19	8	9	2	n/a	n/a	n/a	n/a	n/a
1320.278	n/a	STOP	660139	n/a	LTP089	ltpFR	9	n/a	n/a	n/a	n/a	n/a	n/a	n/a	n/a	n/a	n/a	n/a	n/a	n/a	n/a	n/a
1323.442	n/a	REC_START	661721	n/a	LTP089	ltpFR	9	5	n/a	n/a	n/a	n/a	n/a	n/a	0	0	0	n/a	n/a	n/a	n/a	n/a
1325.678	n/a	REC_WORD	662839	wordpools/wasnorm_wordpool.txt	LTP089	ltpFR	9	5	0	BLUEJAY	141	n/a	0	n/a	0	0	0	n/a	n/a	n/a	n/a	n/a
1326.8	n/a	REC_WORD	663400	wordpools/wasnorm_wordpool.txt	LTP089	ltpFR	9	5	0	OINTMENT	974	n/a	2	n/a	0	0	0	n/a	n/a	n/a	n/a	n/a
1327.652	n/a	REC_WORD	663826	wordpools/wasnorm_wordpool.txt	LTP089	ltpFR	9	5	0	SEA	1259	n/a	0	n/a	0	0	0	n/a	n/a	n/a	n/a	n/a
1335.64	n/a	REC_WORD	667820	wordpools/wasnorm_wordpool.txt	LTP089	ltpFR	9	5	1	WILDERNESS	1610	n/a	0	n/a	0	0	0	n/a	n/a	n/a	n/a	n/a
1412.664	n/a	WORD	706332	wordpools/wasnorm_wordpool.txt	LTP089	ltpFR	9	6	0	JOINT	758	n/a	0	n/a	0	0	0	0	0.5869140625	0.422607421875	lower	../fonts/amplitud.ttf
1416.548	n/a	WORD	708274	wordpools/wasnorm_wordpool.txt	LTP089	ltpFR	9	6	0	MARROW	872	n/a	0	n/a	0	0	0	0	0.5869140625	0.422607421875	lower	../fonts/amplitud.ttf
1420.564	n/a	WORD	710282	wordpools/wasnorm_wordpool.txt	LTP089	ltpFR	9	6	0	CONCRETE	361	n/a	0	n/a	0	0	0	0	0.5869140625	0.422607421875	lower	../fonts/amplitud.ttf
1424.68	n/a	WORD	712340	wordpools/wasnorm_wordpool.txt	LTP089	ltpFR	9	6	0	RADISH	1158	n/a	0	n/a	0	0	0	0	0.5869140625	0.422607421875	lower	../fonts/amplitud.ttf
1428.564	n/a	WORD	714282	wordpools/wasnorm_wordpool.txt	LTP089	ltpFR	9	6	0	NEWSSTAND	949	n/a	0	n/a	0	0	0	0	0.5869140625	0.422607421875	lower	../fonts/amplitud.ttf
1432.764	n/a	WORD	716382	wordpools/wasnorm_wordpool.txt	LTP089	ltpFR	9	6	0	MARINE	869	n/a	1	n/a	0	0	0	0	0.5869140625	0.422607421875	lower	../fonts/amplitud.ttf
1436.688	n/a	WORD	718344	wordpools/wasnorm_wordpool.txt	LTP089	ltpFR	9	6	0	BINDER	127	n/a	1	n/a	0	0	0	0	0.5869140625	0.422607421875	lower	../fonts/amplitud.ttf
1440.846	n/a	WORD	720423	wordpools/wasnorm_wordpool.txt	LTP089	ltpFR	9	6	0	GIRAFFE	636	n/a	1	n/a	0	0	0	0	0.5869140625	0.422607421875	lower	../fonts/amplitud.ttf
1444.822	n/a	WORD	722411	wordpools/wasnorm_wordpool.txt	LTP089	ltpFR	9	6	0	FLEET	578	n/a	1	n/a	0	0	0	0	0.5869140625	0.422607421875	lower	../fonts/amplitud.ttf
1448.672	n/a	WORD	724336	wordpools/wasnorm_wordpool.txt	LTP089	ltpFR	9	6	0	LIEUTENANT	818	n/a	n/a	n/a	0	0	0	0	0.5869140625	0.422607421875	lower	../fonts/amplitud.ttf
1451.696	n/a	SLOW_MSG	725848	n/a	LTP089	ltpFR	9	6	n/a	n/a	n/a	n/a	n/a	n/a	0	0	0	n/a	n/a	n/a	n/a	n/a
1454.112	n/a	WORD	727056	wordpools/wasnorm_wordpool.txt	LTP089	ltpFR	9	6	0	DRILL	497	n/a	1	n/a	0	0	0	0	0.5869140625	0.422607421875	lower	../fonts/amplitud.ttf
1457.98	n/a	WORD	728990	wordpools/wasnorm_wordpool.txt	LTP089	ltpFR	9	6	0	MINER	896	n/a	0	n/a	0	0	0	0	0.5869140625	0.422607421875	lower	../fonts/amplitud.ttf
1462.038	n/a	WORD	731019	wordpools/wasnorm_wordpool.txt	LTP089	ltpFR	9	6	0	FAUCET	555	n/a	0	n/a	0	0	0	0	0.5869140625	0.422607421875	lower	../fonts/amplitud.ttf
1466.072	n/a	WORD	733036	wordpools/wasnorm_wordpool.txt	LTP089	ltpFR	9	6	0	SCARF	1246	n/a	0	n/a	0	0	0	0	0.5869140625	0.422607421875	lower	../fonts/amplitud.ttf
1470.204	n/a	WORD	735102	wordpools/wasnorm_wordpool.txt	LTP089	ltpFR	9	6	0	PUBLICATION	1136	n/a	0	n/a	0	0	0	0	0.5869140625	0.422607421875	lower	../fonts/amplitud.ttf
1474.194	n/a	WORD	737097	wordpools/wasnorm_wordpool.txt	LTP089	ltpFR	9	6	0	DECK	443	n/a	0	n/a	0	0	0	0	0.5869140625	0.422607421875	lower	../fonts/amplitud.ttf
1480.22	n/a	REC_START	740110	n/a	LTP089	ltpFR	9	6	n/a	n/a	n/a	n/a	n/a	n/a	0	0	0	n/a	n/a	n/a	n/a	n/a
1481.738	n/a	REC_WORD	740869	wordpools/wasnorm_wordpool.txt	LTP089	ltpFR	9	6	0	DECK	443	n/a	0	n/a	0	0	0	n/a	n/a	n/a	n/a	n/a
1482.51	n/a	REC_WORD	741255	wordpools/wasnorm_wordpool.txt	LTP089	ltpFR	9	6	0	PUBLICATION	1136	n/a	0	n/a	0	0	0	n/a	n/a	n/a	n/a	n/a
1490.302	n/a	REC_WORD	745151	wordpools/wasnorm_wordpool.txt	LTP089	ltpFR	9	6	n/a	MAGAZINE	853	n/a	n/a	n/a	0	0	0	n/a	n/a	n/a	n/a	n/a
1492.726	n/a	REC_WORD	746363	wordpools/wasnorm_wordpool.txt	LTP089	ltpFR	9	6	0	CONCRETE	361	n/a	0	n/a	0	0	0	n/a	n/a	n/a	n/a	n/a
1499.776	n/a	REC_WORD	749888	wordpools/wasnorm_wordpool.txt	LTP089	ltpFR	9	6	0	MARROW	872	n/a	0	n/a	0	0	0	n/a	n/a	n/a	n/a	n/a
1505.1	n/a	REC_WORD	752550	wordpools/wasnorm_wordpool.txt	LTP089	ltpFR	9	6	0	JOINT	758	n/a	0	n/a	0	0	0	n/a	n/a	n/a	n/a	n/a
1566.694	n/a	START	783347	n/a	LTP089	ltpFR	9	n/a	n/a	n/a	n/a	n/a	n/a	n/a	n/a	n/a	n/a	n/a	n/a	n/a	n/a	n/a
1568.2	n/a	PROB	784100	n/a	LTP089	ltpFR	9	n/a	n/a	n/a	n/a	n/a	n/a	23	6	9	8	n/a	n/a	n/a	n/a	n/a
1572.326	n/a	PROB	786163	n/a	LTP089	ltpFR	9	n/a	n/a	n/a	n/a	n/a	n/a	16	5	4	7	n/a	n/a	n/a	n/a	n/a
1575.142	n/a	PROB	787571	n/a	LTP089	ltpFR	9	n/a	n/a	n/a	n/a	n/a	n/a	6	3	1	2	n/a	n/a	n/a	n/a	n/a
1577.368	n/a	PROB	788684	n/a	LTP089	ltpFR	9	n/a	n/a	n/a	n/a	n/a	n/a	18	2	8	8	n/a	n/a	n/a	n/a	n/a
1582.694	n/a	STOP	791347	n/a	LTP089	ltpFR	9	n/a	n/a	n/a	n/a	n/a	n/a	n/a	n/a	n/a	n/a	n/a	n/a	n/a	n/a	n/a
1583.594	n/a	WORD	791797	wordpools/wasnorm_wordpool.txt	LTP089	ltpFR	9	7	1	DONOR	485	n/a	0	n/a	0	0	0	1	0.412841796875	0.57763671875	upper	../fonts/zerothre.ttf
1586.602	n/a	START	793301	n/a	LTP089	ltpFR	9	n/a	n/a	n/a	n/a	n/a	n/a	n/a	n/a	n/a	n/a	n/a	n/a	n/a	n/a	n/a
1587.726	n/a	PROB	793863	n/a	LTP089	ltpFR	9	n/a	n/a	n/a	n/a	n/a	n/a	6	1	1	4	n/a	n/a	n/a	n/a	n/a
1589.426	n/a	PROB	794713	n/a	LTP089	ltpFR	9	n/a	n/a	n/a	n/a	n/a	n/a	8	1	5	2	n/a	n/a	n/a	n/a	n/a
1592.376	n/a	PROB	796188	n/a	LTP089	ltpFR	9	n/a	n/a	n/a	n/a	n/a	n/a	17	8	3	5	n/a	n/a	n/a	n/a	n/a
1596.134	n/a	PROB	798067	n/a	LTP089	ltpFR	9	n/a	n/a	n/a	n/a	n/a	n/a	15	5	8	2	n/a	n/a	n/a	n/a	n/a
1598.534	n/a	PROB	799267	n/a	LTP089	ltpFR	9	n/a	n/a	n/a	n/a	n/a	n/a	10	3	5	2	n/a	n/a	n/a	n/a	n/a
1602.602	n/a	STOP	801301	n/a	LTP089	ltpFR	9	n/a	n/a	n/a	n/a	n/a	n/a	n/a	n/a	n/a	n/a	n/a	n/a	n/a	n/a	n/a
1603.534	n/a	WORD	801767	wordpools/wasnorm_wordpool.txt	LTP089	ltpFR	9	7	1	TART	1436	n/a	0	n/a	0	0	0	1	0.412841796875	0.57763671875	upper	../fonts/zerothre.ttf
1606.542	n/a	START	803271	n/a	LTP089	ltpFR	9	n/a	n/a	n/a	n/a	n/a	n/a	n/a	n/a	n/a	n/a	n/a	n/a	n/a	n/a	n/a
1607.568	n/a	PROB	803784	n/a	LTP089	ltpFR	9	n/a	n/a	n/a	n/a	n/a	n/a	12	3	1	8	n/a	n/a	n/a	n/a	n/a
1611.292	n/a	PROB	805646	n/a	LTP089	ltpFR	9	n/a	n/a	n/a	n/a	n/a	n/a	14	3	9	2	n/a	n/a	n/a	n/a	n/a
1616.126	n/a	PROB	808063	n/a	LTP089	ltpFR	9	n/a	n/a	n/a	n/a	n/a	n/a	12	3	3	6	n/a	n/a	n/a	n/a	n/a
1618.01	n/a	PROB	809005	n/a	LTP089	ltpFR	9	n/a	n/a	n/a	n/a	n/a	n/a	14	3	8	3	n/a	n/a	n/a	n/a	n/a
1621.228	n/a	STOP	810614	n/a	LTP089	ltpFR	9	n/a	n/a	n/a	n/a	n/a	n/a	n/a	n/a	n/a	n/a	n/a	n/a	n/a	n/a	n/a
1623.45	n/a	WORD	811725	wordpools/wasnorm_wordpool.txt	LTP089	ltpFR	9	7	1	DAGGER	434	n/a	0	n/a	0	0	0	1	0.412841796875	0.57763671875	upper	../fonts/zerothre.ttf
1626.458	n/a	START	813229	n/a	LTP089	ltpFR	9	n/a	n/a	n/a	n/a	n/a	n/a	n/a	n/a	n/a	n/a	n/a	n/a	n/a	n/a	n/a
1627.316	n/a	PROB	813658	n/a	LTP089	ltpFR	9	n/a	n/a	n/a	n/a	n/a	n/a	10	8	1	1	n/a	n/a	n/a	n/a	n/a
1629.282	n/a	PROB	814641	n/a	LTP089	ltpFR	9	n/a	n/a	n/a	n/a	n/a	n/a	19	3	8	8	n/a	n/a	n/a	n/a	n/a
1633.382	n/a	PROB	816691	n/a	LTP089	ltpFR	9	n/a	n/a	n/a	n/a	n/a	n/a	14	2	6	6	n/a	n/a	n/a	n/a	n/a
1636.708	n/a	PROB	818354	n/a	LTP089	ltpFR	9	n/a	n/a	n/a	n/a	n/a	n/a	11	2	4	5	n/a	n/a	n/a	n/a	n/a
1642.458	n/a	STOP	821229	n/a	LTP089	ltpFR	9	n/a	n/a	n/a	n/a	n/a	n/a	n/a	n/a	n/a	n/a	n/a	n/a	n/a	n/a	n/a
1643.29	n/a	WORD	821645	wordpools/wasnorm_wordpool.txt	LTP089	ltpFR	9	7	1	APPENDAGE	32	n/a	0	n/a	0	0	0	1	0.412841796875	0.57763671875	upper	../fonts/zerothre.ttf
1646.3	n/a	START	823150	n/a	LTP089	ltpFR	9	n/a	n/a	n/a	n/a	n/a	n/a	n/a	n/a	n/a	n/a	n/a	n/a	n/a	n/a	n/a
1647.474	n/a	PROB	823737	n/a	LTP089	ltpFR	9	n/a	n/a	n/a	n/a	n/a	n/a	15	9	2	4	n/a	n/a	n/a	n/a	n/a
1651.532	n/a	PROB	825766	n/a	LTP089	ltpFR	9	n/a	n/a	n/a	n/a	n/a	n/a	18	3	7	8	n/a	n/a	n/a	n/a	n/a
1654.016	n/a	PROB	827008	n/a	LTP089	ltpFR	9	n/a	n/a	n/a	n/a	n/a	n/a	14	9	2	3	n/a	n/a	n/a	n/a	n/a
1656.116	n/a	PROB	828058	n/a	LTP089	ltpFR	9	n/a	n/a	n/a	n/a	n/a	n/a	15	1	7	7	n/a	n/a	n/a	n/a	n/a
1658.716	n/a	PROB	829358	n/a	LTP089	ltpFR	9	n/a	n/a	n/a	n/a	n/a	n/a	21	9	3	9	n/a	n/a	n/a	n/a	n/a
1661.624	n/a	STOP	830812	n/a	LTP089	ltpFR	9	n/a	n/a	n/a	n/a	n/a	n/a	n/a	n/a	n/a	n/a	n/a	n/a	n/a	n/a	n/a
1663.14	n/a	WORD	831570	wordpools/wasnorm_wordpool.txt	LTP089	ltpFR	9	7	1	JAPAN	749	n/a	0	n/a	0	0	0	1	0.412841796875	0.57763671875	upper	../fonts/zerothre.ttf
1666.14	n/a	START	833070	n/a	LTP089	ltpFR	9	n/a	n/a	n/a	n/a	n/a	n/a	n/a	n/a	n/a	n/a	n/a	n/a	n/a	n/a	n/a
1667.156	n/a	PROB	833578	n/a	LTP089	ltpFR	9	n/a	n/a	n/a	n/a	n/a	n/a	17	5	5	7	n/a	n/a	n/a	n/a	n/a
1668.732	n/a	PROB	834366	n/a	LTP089	ltpFR	9	n/a	n/a	n/a	n/a	n/a	n/a	14	2	6	6	n/a	n/a	n/a	n/a	n/a
1671.04	n/a	PROB	835520	n/a	LTP089	ltpFR	9	n/a	n/a	n/a	n/a	n/a	n/a	15	7	3	5	n/a	n/a	n/a	n/a	n/a
1672.924	n/a	PROB	836462	n/a	LTP089	ltpFR	9	n/a	n/a	n/a	n/a	n/a	n/a	4	1	1	2	n/a	n/a	n/a	n/a	n/a
1675.808	n/a	PROB	837904	n/a	LTP089	ltpFR	9	n/a	n/a	n/a	n/a	n/a	n/a	20	5	7	8	n/a	n/a	n/a	n/a	n/a
1679.558	n/a	PROB	839779	n/a	LTP089	ltpFR	9	n/a	n/a	n/a	n/a	n/a	n/a	9	6	1	2	n/a	n/a	n/a	n/a	n/a
1681.752	n/a	STOP	840876	n/a	LTP089	ltpFR	9	n/a	n/a	n/a	n/a	n/a	n/a	n/a	n/a	n/a	n/a	n/a	n/a	n/a	n/a	n/a
1683.316	n/a	WORD	841658	wordpools/wasnorm_wordpool.txt	LTP089	ltpFR	9	7	0	ANIMAL	23	n/a	2	n/a	0	0	0	0	0.5869140625	0.422607421875	lower	../fonts/amplitud.ttf
1683.798	n/a	KEY_MSG	841899	n/a	LTP089	ltpFR	9	7	n/a	n/a	n/a	n/a	n/a	n/a	0	0	0	n/a	n/a	n/a	n/a	n/a
1686.324	n/a	START	843162	n/a	LTP089	ltpFR	9	n/a	n/a	n/a	n/a	n/a	n/a	n/a	n/a	n/a	n/a	n/a	n/a	n/a	n/a	n/a
1687.298	n/a	PROB	843649	n/a	LTP089	ltpFR	9	n/a	n/a	n/a	n/a	n/a	n/a	21	7	5	7	n/a	n/a	n/a	n/a	n/a
1690.582	n/a	PROB	845291	n/a	LTP089	ltpFR	9	n/a	n/a	n/a	n/a	n/a	n/a	13	4	7	2	n/a	n/a	n/a	n/a	n/a
1696.508	n/a	PROB	848254	n/a	LTP089	ltpFR	9	n/a	n/a	n/a	n/a	n/a	n/a	11	2	7	2	n/a	n/a	n/a	n/a	n/a
1699.648	n/a	PROB	849824	n/a	LTP089	ltpFR	9	n/a	n/a	n/a	n/a	n/a	n/a	12	2	9	1	n/a	n/a	n/a	n/a	n/a
1701.802	n/a	STOP	850901	n/a	LTP089	ltpFR	9	n/a	n/a	n/a	n/a	n/a	n/a	n/a	n/a	n/a	n/a	n/a	n/a	n/a	n/a	n/a
1703.414	n/a	WORD	851707	wordpools/wasnorm_wordpool.txt	LTP089	ltpFR	9	7	0	WOLF	1619	n/a	0	n/a	0	0	0	0	0.5869140625	0.422607421875	lower	../fonts/amplitud.ttf
1706.424	n/a	START	853212	n/a	LTP089	ltpFR	9	n/a	n/a	n/a	n/a	n/a	n/a	n/a	n/a	n/a	n/a	n/a	n/a	n/a	n/a	n/a
1707.264	n/a	PROB	853632	n/a	LTP089	ltpFR	9	n/a	n/a	n/a	n/a	n/a	n/a	16	1	6	9	n/a	n/a	n/a	n/a	n/a
1711.698	n/a	PROB	855849	n/a	LTP089	ltpFR	9	n/a	n/a	n/a	n/a	n/a	n/a	19	4	6	9	n/a	n/a	n/a	n/a	n/a
1714.238	n/a	PROB	857119	n/a	LTP089	ltpFR	9	n/a	n/a	n/a	n/a	n/a	n/a	19	9	7	3	n/a	n/a	n/a	n/a	n/a
1717.164	n/a	PROB	858582	n/a	LTP089	ltpFR	9	n/a	n/a	n/a	n/a	n/a	n/a	15	9	5	1	n/a	n/a	n/a	n/a	n/a
1722.424	n/a	STOP	861212	n/a	LTP089	ltpFR	9	n/a	n/a	n/a	n/a	n/a	n/a	n/a	n/a	n/a	n/a	n/a	n/a	n/a	n/a	n/a
1723.598	n/a	WORD	861799	wordpools/wasnorm_wordpool.txt	LTP089	ltpFR	9	7	0	COUNTRY	388	n/a	0	n/a	0	0	0	0	0.5869140625	0.422607421875	lower	../fonts/amplitud.ttf
1726.606	n/a	START	863303	n/a	LTP089	ltpFR	9	n/a	n/a	n/a	n/a	n/a	n/a	n/a	n/a	n/a	n/a	n/a	n/a	n/a	n/a	n/a
1727.614	n/a	PROB	863807	n/a	LTP089	ltpFR	9	n/a	n/a	n/a	n/a	n/a	n/a	19	9	6	5	n/a	n/a	n/a	n/a	n/a
1730.698	n/a	PROB	865349	n/a	LTP089	ltpFR	9	n/a	n/a	n/a	n/a	n/a	n/a	23	7	9	7	n/a	n/a	n/a	n/a	n/a
1734.44	n/a	PROB	867220	n/a	LTP089	ltpFR	9	n/a	n/a	n/a	n/a	n/a	n/a	14	1	4	9	n/a	n/a	n/a	n/a	n/a
1738.998	n/a	PROB	869499	n/a	LTP089	ltpFR	9	n/a	n/a	n/a	n/a	n/a	n/a	15	4	9	2	n/a	n/a	n/a	n/a	n/a
1742.364	n/a	STOP	871182	n/a	LTP089	ltpFR	9	n/a	n/a	n/a	n/a	n/a	n/a	n/a	n/a	n/a	n/a	n/a	n/a	n/a	n/a	n/a
1743.538	n/a	WORD	871769	wordpools/wasnorm_wordpool.txt	LTP089	ltpFR	9	7	0	AFRICA	9	n/a	n/a	n/a	0	0	0	0	0.5869140625	0.422607421875	lower	../fonts/amplitud.ttf
1746.564	n/a	SLOW_MSG	873282	n/a	LTP089	ltpFR	9	7	n/a	n/a	n/a	n/a	n/a	n/a	0	0	0	n/a	n/a	n/a	n/a	n/a
1748.08	n/a	START	874040	n/a	LTP089	ltpFR	9	n/a	n/a	n/a	n/a	n/a	n/a	n/a	n/a	n/a	n/a	n/a	n/a	n/a	n/a	n/a
1749.238	n/a	PROB	874619	n/a	LTP089	ltpFR	9	n/a	n/a	n/a	n/a	n/a	n/a	21	7	6	9	n/a	n/a	n/a	n/a	n/a
1752.914	n/a	PROB	876457	n/a	LTP089	ltpFR	9	n/a	n/a	n/a	n/a	n/a	n/a	14	6	3	5	n/a	n/a	n/a	n/a	n/a
1755.538	n/a	PROB	877769	n/a	LTP089	ltpFR	9	n/a	n/a	n/a	n/a	n/a	n/a	18	3	6	9	n/a	n/a	n/a	n/a	n/a
1760.556	n/a	PROB	880278	n/a	LTP089	ltpFR	9	n/a	n/a	n/a	n/a	n/a	n/a	15	1	9	5	n/a	n/a	n/a	n/a	n/a
1764.082	n/a	STOP	882041	n/a	LTP089	ltpFR	9	n/a	n/a	n/a	n/a	n/a	n/a	n/a	n/a	n/a	n/a	n/a	n/a	n/a	n/a	n/a
1765.22	n/a	WORD	882610	wordpools/wasnorm_wordpool.txt	LTP089	ltpFR	9	7	0	PHILOSOPHER	1054	n/a	0	n/a	0	0	0	0	0.5869140625	0.422607421875	lower	../fonts/amplitud.ttf
1768.228	n/a	START	884114	n/a	LTP089	ltpFR	9	n/a	n/a	n/a	n/a	n/a	n/a	n/a	n/a	n/a	n/a	n/a	n/a	n/a	n/a	n/a
1769.278	n/a	PROB	884639	n/a	LTP089	ltpFR	9	n/a	n/a	n/a	n/a	n/a	n/a	12	2	2	8	n/a	n/a	n/a	n/a	n/a
1771.656	n/a	PROB	885828	n/a	LTP089	ltpFR	9	n/a	n/a	n/a	n/a	n/a	n/a	21	6	8	7	n/a	n/a	n/a	n/a	n/a
1774.506	n/a	PROB	887253	n/a	LTP089	ltpFR	9	n/a	n/a	n/a	n/a	n/a	n/a	18	3	6	9	n/a	n/a	n/a	n/a	n/a
1776.93	n/a	PROB	888465	n/a	LTP089	ltpFR	9	n/a	n/a	n/a	n/a	n/a	n/a	21	8	5	8	n/a	n/a	n/a	n/a	n/a
1779.838	n/a	PROB	889919	n/a	LTP089	ltpFR	9	n/a	n/a	n/a	n/a	n/a	n/a	16	4	7	5	n/a	n/a	n/a	n/a	n/a
1782.822	n/a	STOP	891411	n/a	LTP089	ltpFR	9	n/a	n/a	n/a	n/a	n/a	n/a	n/a	n/a	n/a	n/a	n/a	n/a	n/a	n/a	n/a
1785.136	n/a	WORD	892568	wordpools/wasnorm_wordpool.txt	LTP089	ltpFR	9	7	0	SCIENTIST	1249	n/a	0	n/a	0	0	0	0	0.5869140625	0.422607421875	lower	../fonts/amplitud.ttf
1788.144	n/a	START	894072	n/a	LTP089	ltpFR	9	n/a	n/a	n/a	n/a	n/a	n/a	n/a	n/a	n/a	n/a	n/a	n/a	n/a	n/a	n/a
1789.22	n/a	PROB	894610	n/a	LTP089	ltpFR	9	n/a	n/a	n/a	n/a	n/a	n/a	14	4	6	4	n/a	n/a	n/a	n/a	n/a
1791.346	n/a	PROB	895673	n/a	LTP089	ltpFR	9	n/a	n/a	n/a	n/a	n/a	n/a	16	9	4	3	n/a	n/a	n/a	n/a	n/a
1794.362	n/a	PROB	897181	n/a	LTP089	ltpFR	9	n/a	n/a	n/a	n/a	n/a	n/a	20	8	6	6	n/a	n/a	n/a	n/a	n/a
1804.146	n/a	STOP	902073	n/a	LTP089	ltpFR	9	n/a	n/a	n/a	n/a	n/a	n/a	n/a	n/a	n/a	n/a	n/a	n/a	n/a	n/a	n/a
1805.12	n/a	WORD	902560	wordpools/wasnorm_wordpool.txt	LTP089	ltpFR	9	7	1	MOAT	903	n/a	2	n/a	0	0	0	1	0.412841796875	0.57763671875	upper	../fonts/zerothre.ttf
1805.436	n/a	KEY_MSG	902718	n/a	LTP089	ltpFR	9	7	n/a	n/a	n/a	n/a	n/a	n/a	0	0	0	n/a	n/a	n/a	n/a	n/a
1808.13	n/a	START	904065	n/a	LTP089	ltpFR	9	n/a	n/a	n/a	n/a	n/a	n/a	n/a	n/a	n/a	n/a	n/a	n/a	n/a	n/a	n/a
1809.204	n/a	PROB	904602	n/a	LTP089	ltpFR	9	n/a	n/a	n/a	n/a	n/a	n/a	10	3	2	5	n/a	n/a	n/a	n/a	n/a
1811.096	n/a	PROB	905548	n/a	LTP089	ltpFR	9	n/a	n/a	n/a	n/a	n/a	n/a	21	9	7	5	n/a	n/a	n/a	n/a	n/a
1815.396	n/a	PROB	907698	n/a	LTP089	ltpFR	9	n/a	n/a	n/a	n/a	n/a	n/a	16	7	2	7	n/a	n/a	n/a	n/a	n/a
1818.346	n/a	PROB	909173	n/a	LTP089	ltpFR	9	n/a	n/a	n/a	n/a	n/a	n/a	18	4	6	8	n/a	n/a	n/a	n/a	n/a
1820.404	n/a	PROB	910202	n/a	LTP089	ltpFR	9	n/a	n/a	n/a	n/a	n/a	n/a	9	2	2	5	n/a	n/a	n/a	n/a	n/a
1824.128	n/a	STOP	912064	n/a	LTP089	ltpFR	9	n/a	n/a	n/a	n/a	n/a	n/a	n/a	n/a	n/a	n/a	n/a	n/a	n/a	n/a	n/a
1825.268	n/a	WORD	912634	wordpools/wasnorm_wordpool.txt	LTP089	ltpFR	9	7	1	KNIFE	785	n/a	0	n/a	0	0	0	1	0.412841796875	0.57763671875	upper	../fonts/zerothre.ttf
1828.278	n/a	START	914139	n/a	LTP089	ltpFR	9	n/a	n/a	n/a	n/a	n/a	n/a	n/a	n/a	n/a	n/a	n/a	n/a	n/a	n/a	n/a
1829.428	n/a	PROB	914714	n/a	LTP089	ltpFR	9	n/a	n/a	n/a	n/a	n/a	n/a	18	7	4	7	n/a	n/a	n/a	n/a	n/a
1831.828	n/a	PROB	915914	n/a	LTP089	ltpFR	9	n/a	n/a	n/a	n/a	n/a	n/a	16	2	8	6	n/a	n/a	n/a	n/a	n/a
1833.436	n/a	PROB	916718	n/a	LTP089	ltpFR	9	n/a	n/a	n/a	n/a	n/a	n/a	18	6	5	7	n/a	n/a	n/a	n/a	n/a
1835.562	n/a	PROB	917781	n/a	LTP089	ltpFR	9	n/a	n/a	n/a	n/a	n/a	n/a	23	7	7	9	n/a	n/a	n/a	n/a	n/a
1838.836	n/a	PROB	919418	n/a	LTP089	ltpFR	9	n/a	n/a	n/a	n/a	n/a	n/a	14	3	2	9	n/a	n/a	n/a	n/a	n/a
1844.278	n/a	STOP	922139	n/a	LTP089	ltpFR	9	n/a	n/a	n/a	n/a	n/a	n/a	n/a	n/a	n/a	n/a	n/a	n/a	n/a	n/a	n/a
1845.276	n/a	WORD	922638	wordpools/wasnorm_wordpool.txt	LTP089	ltpFR	9	7	1	SHUTTER	1300	n/a	0	n/a	0	0	0	1	0.412841796875	0.57763671875	upper	../fonts/zerothre.ttf
1848.286	n/a	START	924143	n/a	LTP089	ltpFR	9	n/a	n/a	n/a	n/a	n/a	n/a	n/a	n/a	n/a	n/a	n/a	n/a	n/a	n/a	n/a
1849.47	n/a	PROB	924735	n/a	LTP089	ltpFR	9	n/a	n/a	n/a	n/a	n/a	n/a	20	3	8	3	n/a	n/a	n/a	n/a	n/a
1852.102	n/a	PROB	926051	n/a	LTP089	ltpFR	9	n/a	n/a	n/a	n/a	n/a	n/a	16	1	9	6	n/a	n/a	n/a	n/a	n/a
1853.82	n/a	PROB	926910	n/a	LTP089	ltpFR	9	n/a	n/a	n/a	n/a	n/a	n/a	20	9	4	7	n/a	n/a	n/a	n/a	n/a
1856.502	n/a	PROB	928251	n/a	LTP089	ltpFR	9	n/a	n/a	n/a	n/a	n/a	n/a	11	7	3	1	n/a	n/a	n/a	n/a	n/a
1858.16	n/a	PROB	929080	n/a	LTP089	ltpFR	9	n/a	n/a	n/a	n/a	n/a	n/a	20	6	5	9	n/a	n/a	n/a	n/a	n/a
1864.286	n/a	STOP	932143	n/a	LTP089	ltpFR	9	n/a	n/a	n/a	n/a	n/a	n/a	n/a	n/a	n/a	n/a	n/a	n/a	n/a	n/a	n/a
1865.25	n/a	WORD	932625	wordpools/wasnorm_wordpool.txt	LTP089	ltpFR	9	7	0	STEAM	1375	n/a	2	n/a	0	0	0	0	0.5869140625	0.422607421875	lower	../fonts/amplitud.ttf
1865.676	n/a	KEY_MSG	932838	n/a	LTP089	ltpFR	9	7	n/a	n/a	n/a	n/a	n/a	n/a	0	0	0	n/a	n/a	n/a	n/a	n/a
1868.252	n/a	START	934126	n/a	LTP089	ltpFR	9	n/a	n/a	n/a	n/a	n/a	n/a	n/a	n/a	n/a	n/a	n/a	n/a	n/a	n/a	n/a
1869.42	n/a	PROB	934710	n/a	LTP089	ltpFR	9	n/a	n/a	n/a	n/a	n/a	n/a	7	1	4	2	n/a	n/a	n/a	n/a	n/a
1872.844	n/a	PROB	936422	n/a	LTP089	ltpFR	9	n/a	n/a	n/a	n/a	n/a	n/a	23	9	8	6	n/a	n/a	n/a	n/a	n/a
1875.768	n/a	PROB	937884	n/a	LTP089	ltpFR	9	n/a	n/a	n/a	n/a	n/a	n/a	20	4	7	9	n/a	n/a	n/a	n/a	n/a
1879.018	n/a	PROB	939509	n/a	LTP089	ltpFR	9	n/a	n/a	n/a	n/a	n/a	n/a	14	4	9	1	n/a	n/a	n/a	n/a	n/a
1882.034	n/a	PROB	941017	n/a	LTP089	ltpFR	9	n/a	n/a	n/a	n/a	n/a	n/a	13	4	6	3	n/a	n/a	n/a	n/a	n/a
1883.602	n/a	STOP	941801	n/a	LTP089	ltpFR	9	n/a	n/a	n/a	n/a	n/a	n/a	n/a	n/a	n/a	n/a	n/a	n/a	n/a	n/a	n/a
1885.084	n/a	WORD	942542	wordpools/wasnorm_wordpool.txt	LTP089	ltpFR	9	7	0	ORANGE	980	n/a	0	n/a	0	0	0	0	0.5869140625	0.422607421875	lower	../fonts/amplitud.ttf
1888.094	n/a	START	944047	n/a	LTP089	ltpFR	9	n/a	n/a	n/a	n/a	n/a	n/a	n/a	n/a	n/a	n/a	n/a	n/a	n/a	n/a	n/a
1889.218	n/a	PROB	944609	n/a	LTP089	ltpFR	9	n/a	n/a	n/a	n/a	n/a	n/a	23	7	8	9	n/a	n/a	n/a	n/a	n/a
1894.802	n/a	PROB	947401	n/a	LTP089	ltpFR	9	n/a	n/a	n/a	n/a	n/a	n/a	10	1	2	7	n/a	n/a	n/a	n/a	n/a
1896.926	n/a	PROB	948463	n/a	LTP089	ltpFR	9	n/a	n/a	n/a	n/a	n/a	n/a	13	9	2	2	n/a	n/a	n/a	n/a	n/a
1900.602	n/a	PROB	950301	n/a	LTP089	ltpFR	9	n/a	n/a	n/a	n/a	n/a	n/a	6	3	1	2	n/a	n/a	n/a	n/a	n/a
1903.692	n/a	STOP	951846	n/a	LTP089	ltpFR	9	n/a	n/a	n/a	n/a	n/a	n/a	n/a	n/a	n/a	n/a	n/a	n/a	n/a	n/a	n/a
1905.852	n/a	REC_START	952926	n/a	LTP089	ltpFR	9	7	n/a	n/a	n/a	n/a	n/a	n/a	0	0	0	n/a	n/a	n/a	n/a	n/a
1907.514	n/a	REC_WORD	953757	wordpools/wasnorm_wordpool.txt	LTP089	ltpFR	9	7	0	COUNTRY	388	n/a	0	n/a	0	0	0	n/a	n/a	n/a	n/a	n/a
1908.432	n/a	REC_WORD	954216	wordpools/wasnorm_wordpool.txt	LTP089	ltpFR	9	7	0	WOLF	1619	n/a	0	n/a	0	0	0	n/a	n/a	n/a	n/a	n/a
1909.284	n/a	REC_WORD	954642	wordpools/wasnorm_wordpool.txt	LTP089	ltpFR	9	7	0	STEAM	1375	n/a	2	n/a	0	0	0	n/a	n/a	n/a	n/a	n/a
1909.538	n/a	REC_WORD	954769	wordpools/wasnorm_wordpool.txt	LTP089	ltpFR	9	7	n/a	[???]	-1	n/a	n/a	n/a	0	0	0	n/a	n/a	n/a	n/a	n/a
1913.89	n/a	REC_WORD_VV	956945	wordpools/wasnorm_wordpool.txt	LTP089	ltpFR	9	7	n/a	<>	-1	n/a	n/a	n/a	0	0	0	n/a	n/a	n/a	n/a	n/a
1914.89	n/a	REC_WORD_VV	957445	wordpools/wasnorm_wordpool.txt	LTP089	ltpFR	9	7	n/a	<>	-1	n/a	n/a	n/a	0	0	0	n/a	n/a	n/a	n/a	n/a
2014.066	n/a	START	1007033	n/a	LTP089	ltpFR	9	n/a	n/a	n/a	n/a	n/a	n/a	n/a	n/a	n/a	n/a	n/a	n/a	n/a	n/a	n/a
2015.574	n/a	PROB	1007787	n/a	LTP089	ltpFR	9	n/a	n/a	n/a	n/a	n/a	n/a	27	9	9	9	n/a	n/a	n/a	n/a	n/a
2019.156	n/a	PROB	1009578	n/a	LTP089	ltpFR	9	n/a	n/a	n/a	n/a	n/a	n/a	7	2	2	3	n/a	n/a	n/a	n/a	n/a
2022.332	n/a	PROB	1011166	n/a	LTP089	ltpFR	9	n/a	n/a	n/a	n/a	n/a	n/a	14	5	7	2	n/a	n/a	n/a	n/a	n/a
2025.382	n/a	PROB	1012691	n/a	LTP089	ltpFR	9	n/a	n/a	n/a	n/a	n/a	n/a	18	5	6	7	n/a	n/a	n/a	n/a	n/a
2027.706	n/a	PROB	1013853	n/a	LTP089	ltpFR	9	n/a	n/a	n/a	n/a	n/a	n/a	9	3	5	1	n/a	n/a	n/a	n/a	n/a
2029.642	n/a	STOP	1014821	n/a	LTP089	ltpFR	9	n/a	n/a	n/a	n/a	n/a	n/a	n/a	n/a	n/a	n/a	n/a	n/a	n/a	n/a	n/a
2030.956	n/a	WORD	1015478	wordpools/wasnorm_wordpool.txt	LTP089	ltpFR	9	8	0	SWIMMER	1420	n/a	0	n/a	0	0	0	0	0.5869140625	0.422607421875	lower	../fonts/amplitud.ttf
2033.966	n/a	START	1016983	n/a	LTP089	ltpFR	9	n/a	n/a	n/a	n/a	n/a	n/a	n/a	n/a	n/a	n/a	n/a	n/a	n/a	n/a	n/a
2034.882	n/a	PROB	1017441	n/a	LTP089	ltpFR	9	n/a	n/a	n/a	n/a	n/a	n/a	14	6	5	3	n/a	n/a	n/a	n/a	n/a
2037.372	n/a	PROB	1018686	n/a	LTP089	ltpFR	9	n/a	n/a	n/a	n/a	n/a	n/a	17	2	8	7	n/a	n/a	n/a	n/a	n/a
2039.304	n/a	PROB	1019652	n/a	LTP089	ltpFR	9	n/a	n/a	n/a	n/a	n/a	n/a	15	9	4	2	n/a	n/a	n/a	n/a	n/a
2044.288	n/a	PROB	1022144	n/a	LTP089	ltpFR	9	n/a	n/a	n/a	n/a	n/a	n/a	17	7	7	3	n/a	n/a	n/a	n/a	n/a
2049.966	n/a	STOP	1024983	n/a	LTP089	ltpFR	9	n/a	n/a	n/a	n/a	n/a	n/a	n/a	n/a	n/a	n/a	n/a	n/a	n/a	n/a	n/a
2050.906	n/a	WORD	1025453	wordpools/wasnorm_wordpool.txt	LTP089	ltpFR	9	8	0	REEF	1177	n/a	0	n/a	0	0	0	0	0.5869140625	0.422607421875	lower	../fonts/amplitud.ttf
2053.906	n/a	START	1026953	n/a	LTP089	ltpFR	9	n/a	n/a	n/a	n/a	n/a	n/a	n/a	n/a	n/a	n/a	n/a	n/a	n/a	n/a	n/a
2054.822	n/a	PROB	1027411	n/a	LTP089	ltpFR	9	n/a	n/a	n/a	n/a	n/a	n/a	26	9	9	8	n/a	n/a	n/a	n/a	n/a
2060.54	n/a	PROB	1030270	n/a	LTP089	ltpFR	9	n/a	n/a	n/a	n/a	n/a	n/a	25	9	9	7	n/a	n/a	n/a	n/a	n/a
2064.864	n/a	PROB	1032432	n/a	LTP089	ltpFR	9	n/a	n/a	n/a	n/a	n/a	n/a	13	1	6	6	n/a	n/a	n/a	n/a	n/a
2068.364	n/a	STOP	1034182	n/a	LTP089	ltpFR	9	n/a	n/a	n/a	n/a	n/a	n/a	n/a	n/a	n/a	n/a	n/a	n/a	n/a	n/a	n/a
2071.096	n/a	WORD	1035548	wordpools/wasnorm_wordpool.txt	LTP089	ltpFR	9	8	0	OATS	968	n/a	0	n/a	0	0	0	0	0.5869140625	0.422607421875	lower	../fonts/amplitud.ttf
2074.098	n/a	START	1037049	n/a	LTP089	ltpFR	9	n/a	n/a	n/a	n/a	n/a	n/a	n/a	n/a	n/a	n/a	n/a	n/a	n/a	n/a	n/a
2074.914	n/a	PROB	1037457	n/a	LTP089	ltpFR	9	n/a	n/a	n/a	n/a	n/a	n/a	13	1	8	4	n/a	n/a	n/a	n/a	n/a
2079.472	n/a	PROB	1039736	n/a	LTP089	ltpFR	9	n/a	n/a	n/a	n/a	n/a	n/a	12	4	7	1	n/a	n/a	n/a	n/a	n/a
2081.48	n/a	PROB	1040740	n/a	LTP089	ltpFR	9	n/a	n/a	n/a	n/a	n/a	n/a	14	6	5	3	n/a	n/a	n/a	n/a	n/a
2084.538	n/a	PROB	1042269	n/a	LTP089	ltpFR	9	n/a	n/a	n/a	n/a	n/a	n/a	17	9	1	7	n/a	n/a	n/a	n/a	n/a
2090.098	n/a	STOP	1045049	n/a	LTP089	ltpFR	9	n/a	n/a	n/a	n/a	n/a	n/a	n/a	n/a	n/a	n/a	n/a	n/a	n/a	n/a	n/a
2090.922	n/a	WORD	1045461	wordpools/wasnorm_wordpool.txt	LTP089	ltpFR	9	8	0	MAMMAL	861	n/a	0	n/a	0	0	0	0	0.5869140625	0.422607421875	lower	../fonts/amplitud.ttf
2093.93	n/a	START	1046965	n/a	LTP089	ltpFR	9	n/a	n/a	n/a	n/a	n/a	n/a	n/a	n/a	n/a	n/a	n/a	n/a	n/a	n/a	n/a
2094.996	n/a	PROB	1047498	n/a	LTP089	ltpFR	9	n/a	n/a	n/a	n/a	n/a	n/a	12	9	1	1	n/a	n/a	n/a	n/a	n/a
2096.654	n/a	PROB	1048327	n/a	LTP089	ltpFR	9	n/a	n/a	n/a	n/a	n/a	n/a	14	8	1	5	n/a	n/a	n/a	n/a	n/a
2100.472	n/a	PROB	1050236	n/a	LTP089	ltpFR	9	n/a	n/a	n/a	n/a	n/a	n/a	17	8	1	8	n/a	n/a	n/a	n/a	n/a
2102.822	n/a	PROB	1051411	n/a	LTP089	ltpFR	9	n/a	n/a	n/a	n/a	n/a	n/a	13	2	4	7	n/a	n/a	n/a	n/a	n/a
2105.596	n/a	PROB	1052798	n/a	LTP089	ltpFR	9	n/a	n/a	n/a	n/a	n/a	n/a	21	9	6	6	n/a	n/a	n/a	n/a	n/a
2109.134	n/a	STOP	1054567	n/a	LTP089	ltpFR	9	n/a	n/a	n/a	n/a	n/a	n/a	n/a	n/a	n/a	n/a	n/a	n/a	n/a	n/a	n/a
2110.78	n/a	WORD	1055390	wordpools/wasnorm_wordpool.txt	LTP089	ltpFR	9	8	0	JUNGLE	764	n/a	0	n/a	0	0	0	0	0.5869140625	0.422607421875	lower	../fonts/amplitud.ttf
2113.788	n/a	START	1056894	n/a	LTP089	ltpFR	9	n/a	n/a	n/a	n/a	n/a	n/a	n/a	n/a	n/a	n/a	n/a	n/a	n/a	n/a	n/a
2114.862	n/a	PROB	1057431	n/a	LTP089	ltpFR	9	n/a	n/a	n/a	n/a	n/a	n/a	13	6	1	5	n/a	n/a	n/a	n/a	n/a
2118.012	n/a	PROB	1059006	n/a	LTP089	ltpFR	9	n/a	n/a	n/a	n/a	n/a	n/a	12	5	1	6	n/a	n/a	n/a	n/a	n/a
2120.612	n/a	PROB	1060306	n/a	LTP089	ltpFR	9	n/a	n/a	n/a	n/a	n/a	n/a	25	6	9	9	n/a	n/a	n/a	n/a	n/a
2124.162	n/a	PROB	1062081	n/a	LTP089	ltpFR	9	n/a	n/a	n/a	n/a	n/a	n/a	10	3	6	1	n/a	n/a	n/a	n/a	n/a
2127.02	n/a	PROB	1063510	n/a	LTP089	ltpFR	9	n/a	n/a	n/a	n/a	n/a	n/a	18	4	8	6	n/a	n/a	n/a	n/a	n/a
2129.68	n/a	STOP	1064840	n/a	LTP089	ltpFR	9	n/a	n/a	n/a	n/a	n/a	n/a	n/a	n/a	n/a	n/a	n/a	n/a	n/a	n/a	n/a
2130.97	n/a	WORD	1065485	wordpools/wasnorm_wordpool.txt	LTP089	ltpFR	9	8	0	SKULL	1320	n/a	0	n/a	0	0	0	0	0.5869140625	0.422607421875	lower	../fonts/amplitud.ttf
2133.978	n/a	START	1066989	n/a	LTP089	ltpFR	9	n/a	n/a	n/a	n/a	n/a	n/a	n/a	n/a	n/a	n/a	n/a	n/a	n/a	n/a	n/a
2135.128	n/a	PROB	1067564	n/a	LTP089	ltpFR	9	n/a	n/a	n/a	n/a	n/a	n/a	14	2	4	8	n/a	n/a	n/a	n/a	n/a
2138.878	n/a	PROB	1069439	n/a	LTP089	ltpFR	9	n/a	n/a	n/a	n/a	n/a	n/a	18	2	7	9	n/a	n/a	n/a	n/a	n/a
2141.77	n/a	PROB	1070885	n/a	LTP089	ltpFR	9	n/a	n/a	n/a	n/a	n/a	n/a	19	8	3	7	n/a	n/a	n/a	n/a	n/a
2145.77	n/a	PROB	1072885	n/a	LTP089	ltpFR	9	n/a	n/a	n/a	n/a	n/a	n/a	10	3	6	1	n/a	n/a	n/a	n/a	n/a
2149.112	n/a	STOP	1074556	n/a	LTP089	ltpFR	9	n/a	n/a	n/a	n/a	n/a	n/a	n/a	n/a	n/a	n/a	n/a	n/a	n/a	n/a	n/a
2151.104	n/a	WORD	1075552	wordpools/wasnorm_wordpool.txt	LTP089	ltpFR	9	8	0	LETTUCE	814	n/a	0	n/a	0	0	0	0	0.5869140625	0.422607421875	lower	../fonts/amplitud.ttf
2154.112	n/a	START	1077056	n/a	LTP089	ltpFR	9	n/a	n/a	n/a	n/a	n/a	n/a	n/a	n/a	n/a	n/a	n/a	n/a	n/a	n/a	n/a
2155.194	n/a	PROB	1077597	n/a	LTP089	ltpFR	9	n/a	n/a	n/a	n/a	n/a	n/a	12	9	2	1	n/a	n/a	n/a	n/a	n/a
2157.586	n/a	PROB	1078793	n/a	LTP089	ltpFR	9	n/a	n/a	n/a	n/a	n/a	n/a	8	2	3	3	n/a	n/a	n/a	n/a	n/a
2160.812	n/a	PROB	1080406	n/a	LTP089	ltpFR	9	n/a	n/a	n/a	n/a	n/a	n/a	21	3	9	9	n/a	n/a	n/a	n/a	n/a
2165.078	n/a	PROB	1082539	n/a	LTP089	ltpFR	9	n/a	n/a	n/a	n/a	n/a	n/a	17	4	9	4	n/a	n/a	n/a	n/a	n/a
2169.834	n/a	STOP	1084917	n/a	LTP089	ltpFR	9	n/a	n/a	n/a	n/a	n/a	n/a	n/a	n/a	n/a	n/a	n/a	n/a	n/a	n/a	n/a
2170.952	n/a	WORD	1085476	wordpools/wasnorm_wordpool.txt	LTP089	ltpFR	9	8	0	RECIPE	1175	n/a	0	n/a	0	0	0	0	0.5869140625	0.422607421875	lower	../fonts/amplitud.ttf
2173.962	n/a	START	1086981	n/a	LTP089	ltpFR	9	n/a	n/a	n/a	n/a	n/a	n/a	n/a	n/a	n/a	n/a	n/a	n/a	n/a	n/a	n/a
2175.136	n/a	PROB	1087568	n/a	LTP089	ltpFR	9	n/a	n/a	n/a	n/a	n/a	n/a	21	8	6	7	n/a	n/a	n/a	n/a	n/a
2177.37	n/a	PROB	1088685	n/a	LTP089	ltpFR	9	n/a	n/a	n/a	n/a	n/a	n/a	14	3	7	4	n/a	n/a	n/a	n/a	n/a
2179.462	n/a	PROB	1089731	n/a	LTP089	ltpFR	9	n/a	n/a	n/a	n/a	n/a	n/a	20	5	8	7	n/a	n/a	n/a	n/a	n/a
2183.702	n/a	PROB	1091851	n/a	LTP089	ltpFR	9	n/a	n/a	n/a	n/a	n/a	n/a	4	1	2	1	n/a	n/a	n/a	n/a	n/a
2185.91	n/a	PROB	1092955	n/a	LTP089	ltpFR	9	n/a	n/a	n/a	n/a	n/a	n/a	18	6	6	6	n/a	n/a	n/a	n/a	n/a
2189.962	n/a	STOP	1094981	n/a	LTP089	ltpFR	9	n/a	n/a	n/a	n/a	n/a	n/a	n/a	n/a	n/a	n/a	n/a	n/a	n/a	n/a	n/a
2190.926	n/a	WORD	1095463	wordpools/wasnorm_wordpool.txt	LTP089	ltpFR	9	8	0	HAT	690	n/a	0	n/a	0	0	0	0	0.5869140625	0.422607421875	lower	../fonts/amplitud.ttf
2193.928	n/a	START	1096964	n/a	LTP089	ltpFR	9	n/a	n/a	n/a	n/a	n/a	n/a	n/a	n/a	n/a	n/a	n/a	n/a	n/a	n/a	n/a
2194.978	n/a	PROB	1097489	n/a	LTP089	ltpFR	9	n/a	n/a	n/a	n/a	n/a	n/a	19	2	8	9	n/a	n/a	n/a	n/a	n/a
2198.002	n/a	PROB	1099001	n/a	LTP089	ltpFR	9	n/a	n/a	n/a	n/a	n/a	n/a	14	2	6	6	n/a	n/a	n/a	n/a	n/a
2200.242	n/a	PROB	1100121	n/a	LTP089	ltpFR	9	n/a	n/a	n/a	n/a	n/a	n/a	9	6	1	2	n/a	n/a	n/a	n/a	n/a
2202.602	n/a	PROB	1101301	n/a	LTP089	ltpFR	9	n/a	n/a	n/a	n/a	n/a	n/a	15	8	1	6	n/a	n/a	n/a	n/a	n/a
2205.226	n/a	PROB	1102613	n/a	LTP089	ltpFR	9	n/a	n/a	n/a	n/a	n/a	n/a	15	3	7	5	n/a	n/a	n/a	n/a	n/a
2206.76	n/a	PROB	1103380	n/a	LTP089	ltpFR	9	n/a	n/a	n/a	n/a	n/a	n/a	14	7	6	1	n/a	n/a	n/a	n/a	n/a
2209.108	n/a	STOP	1104554	n/a	LTP089	ltpFR	9	n/a	n/a	n/a	n/a	n/a	n/a	n/a	n/a	n/a	n/a	n/a	n/a	n/a	n/a	n/a
2211.084	n/a	WORD	1105542	wordpools/wasnorm_wordpool.txt	LTP089	ltpFR	9	8	0	FLASHLIGHT	575	n/a	0	n/a	0	0	0	0	0.5869140625	0.422607421875	lower	../fonts/amplitud.ttf
2214.094	n/a	START	1107047	n/a	LTP089	ltpFR	9	n/a	n/a	n/a	n/a	n/a	n/a	n/a	n/a	n/a	n/a	n/a	n/a	n/a	n/a	n/a
2215.252	n/a	PROB	1107626	n/a	LTP089	ltpFR	9	n/a	n/a	n/a	n/a	n/a	n/a	10	2	1	7	n/a	n/a	n/a	n/a	n/a
2217.352	n/a	PROB	1108676	n/a	LTP089	ltpFR	9	n/a	n/a	n/a	n/a	n/a	n/a	8	4	3	1	n/a	n/a	n/a	n/a	n/a
2219.468	n/a	PROB	1109734	n/a	LTP089	ltpFR	9	n/a	n/a	n/a	n/a	n/a	n/a	25	9	8	9	n/a	n/a	n/a	n/a	n/a
2222.86	n/a	PROB	1111430	n/a	LTP089	ltpFR	9	n/a	n/a	n/a	n/a	n/a	n/a	9	4	3	2	n/a	n/a	n/a	n/a	n/a
2225.868	n/a	PROB	1112934	n/a	LTP089	ltpFR	9	n/a	n/a	n/a	n/a	n/a	n/a	15	9	2	4	n/a	n/a	n/a	n/a	n/a
2230.052	n/a	STOP	1115026	n/a	LTP089	ltpFR	9	n/a	n/a	n/a	n/a	n/a	n/a	n/a	n/a	n/a	n/a	n/a	n/a	n/a	n/a	n/a
2231.126	n/a	WORD	1115563	wordpools/wasnorm_wordpool.txt	LTP089	ltpFR	9	8	0	BISON	131	n/a	0	n/a	0	0	0	0	0.5869140625	0.422607421875	lower	../fonts/amplitud.ttf
2234.128	n/a	START	1117064	n/a	LTP089	ltpFR	9	n/a	n/a	n/a	n/a	n/a	n/a	n/a	n/a	n/a	n/a	n/a	n/a	n/a	n/a	n/a
2235.192	n/a	PROB	1117596	n/a	LTP089	ltpFR	9	n/a	n/a	n/a	n/a	n/a	n/a	13	1	6	5	n/a	n/a	n/a	n/a	n/a
2239.41	n/a	PROB	1119705	n/a	LTP089	ltpFR	9	n/a	n/a	n/a	n/a	n/a	n/a	8	4	3	1	n/a	n/a	n/a	n/a	n/a
2241.46	n/a	PROB	1120730	n/a	LTP089	ltpFR	9	n/a	n/a	n/a	n/a	n/a	n/a	20	3	8	9	n/a	n/a	n/a	n/a	n/a
2244.834	n/a	PROB	1122417	n/a	LTP089	ltpFR	9	n/a	n/a	n/a	n/a	n/a	n/a	12	4	7	1	n/a	n/a	n/a	n/a	n/a
2246.984	n/a	PROB	1123492	n/a	LTP089	ltpFR	9	n/a	n/a	n/a	n/a	n/a	n/a	8	2	3	3	n/a	n/a	n/a	n/a	n/a
2249.204	n/a	STOP	1124602	n/a	LTP089	ltpFR	9	n/a	n/a	n/a	n/a	n/a	n/a	n/a	n/a	n/a	n/a	n/a	n/a	n/a	n/a	n/a
2251.308	n/a	WORD	1125654	wordpools/wasnorm_wordpool.txt	LTP089	ltpFR	9	8	0	BOMB	147	n/a	0	n/a	0	0	0	0	0.5869140625	0.422607421875	lower	../fonts/amplitud.ttf
2254.318	n/a	START	1127159	n/a	LTP089	ltpFR	9	n/a	n/a	n/a	n/a	n/a	n/a	n/a	n/a	n/a	n/a	n/a	n/a	n/a	n/a	n/a
2255.184	n/a	PROB	1127592	n/a	LTP089	ltpFR	9	n/a	n/a	n/a	n/a	n/a	n/a	4	1	3	1	n/a	n/a	n/a	n/a	n/a
2257.184	n/a	PROB	1128592	n/a	LTP089	ltpFR	9	n/a	n/a	n/a	n/a	n/a	n/a	13	3	5	5	n/a	n/a	n/a	n/a	n/a
2259.3	n/a	PROB	1129650	n/a	LTP089	ltpFR	9	n/a	n/a	n/a	n/a	n/a	n/a	23	8	5	8	n/a	n/a	n/a	n/a	n/a
2262.292	n/a	PROB	1131146	n/a	LTP089	ltpFR	9	n/a	n/a	n/a	n/a	n/a	n/a	10	4	5	1	n/a	n/a	n/a	n/a	n/a
2263.926	n/a	PROB	1131963	n/a	LTP089	ltpFR	9	n/a	n/a	n/a	n/a	n/a	n/a	15	8	2	5	n/a	n/a	n/a	n/a	n/a
2265.616	n/a	PROB	1132808	n/a	LTP089	ltpFR	9	n/a	n/a	n/a	n/a	n/a	n/a	12	3	5	3	n/a	n/a	n/a	n/a	n/a
2270.318	n/a	STOP	1135159	n/a	LTP089	ltpFR	9	n/a	n/a	n/a	n/a	n/a	n/a	n/a	n/a	n/a	n/a	n/a	n/a	n/a	n/a	n/a
2271.392	n/a	WORD	1135696	wordpools/wasnorm_wordpool.txt	LTP089	ltpFR	9	8	0	WINE	1613	n/a	0	n/a	0	0	0	0	0.5869140625	0.422607421875	lower	../fonts/amplitud.ttf
2274.4	n/a	START	1137200	n/a	LTP089	ltpFR	9	n/a	n/a	n/a	n/a	n/a	n/a	n/a	n/a	n/a	n/a	n/a	n/a	n/a	n/a	n/a
2275.242	n/a	PROB	1137621	n/a	LTP089	ltpFR	9	n/a	n/a	n/a	n/a	n/a	n/a	21	6	8	7	n/a	n/a	n/a	n/a	n/a
2278.126	n/a	PROB	1139063	n/a	LTP089	ltpFR	9	n/a	n/a	n/a	n/a	n/a	n/a	16	7	7	2	n/a	n/a	n/a	n/a	n/a
2281.0	n/a	PROB	1140500	n/a	LTP089	ltpFR	9	n/a	n/a	n/a	n/a	n/a	n/a	18	1	8	9	n/a	n/a	n/a	n/a	n/a
2283.408	n/a	PROB	1141704	n/a	LTP089	ltpFR	9	n/a	n/a	n/a	n/a	n/a	n/a	12	7	1	4	n/a	n/a	n/a	n/a	n/a
2290.4	n/a	STOP	1145200	n/a	LTP089	ltpFR	9	n/a	n/a	n/a	n/a	n/a	n/a	n/a	n/a	n/a	n/a	n/a	n/a	n/a	n/a	n/a
2291.5	n/a	WORD	1145750	wordpools/wasnorm_wordpool.txt	LTP089	ltpFR	9	8	0	FOUNTAIN	597	n/a	0	n/a	0	0	0	0	0.5869140625	0.422607421875	lower	../fonts/amplitud.ttf
2294.508	n/a	START	1147254	n/a	LTP089	ltpFR	9	n/a	n/a	n/a	n/a	n/a	n/a	n/a	n/a	n/a	n/a	n/a	n/a	n/a	n/a	n/a
2295.416	n/a	PROB	1147708	n/a	LTP089	ltpFR	9	n/a	n/a	n/a	n/a	n/a	n/a	13	5	2	6	n/a	n/a	n/a	n/a	n/a
2299.642	n/a	PROB	1149821	n/a	LTP089	ltpFR	9	n/a	n/a	n/a	n/a	n/a	n/a	12	6	2	6	n/a	n/a	n/a	n/a	n/a
2301.424	n/a	PROB	1150712	n/a	LTP089	ltpFR	9	n/a	n/a	n/a	n/a	n/a	n/a	21	8	8	5	n/a	n/a	n/a	n/a	n/a
2304.466	n/a	PROB	1152233	n/a	LTP089	ltpFR	9	n/a	n/a	n/a	n/a	n/a	n/a	9	4	1	4	n/a	n/a	n/a	n/a	n/a
2306.482	n/a	PROB	1153241	n/a	LTP089	ltpFR	9	n/a	n/a	n/a	n/a	n/a	n/a	7	1	5	1	n/a	n/a	n/a	n/a	n/a
2310.51	n/a	STOP	1155255	n/a	LTP089	ltpFR	9	n/a	n/a	n/a	n/a	n/a	n/a	n/a	n/a	n/a	n/a	n/a	n/a	n/a	n/a	n/a
2311.366	n/a	WORD	1155683	wordpools/wasnorm_wordpool.txt	LTP089	ltpFR	9	8	0	WATER	1594	n/a	0	n/a	0	0	0	0	0.5869140625	0.422607421875	lower	../fonts/amplitud.ttf
2314.374	n/a	START	1157187	n/a	LTP089	ltpFR	9	n/a	n/a	n/a	n/a	n/a	n/a	n/a	n/a	n/a	n/a	n/a	n/a	n/a	n/a	n/a
2315.466	n/a	PROB	1157733	n/a	LTP089	ltpFR	9	n/a	n/a	n/a	n/a	n/a	n/a	15	8	4	3	n/a	n/a	n/a	n/a	n/a
2317.8	n/a	PROB	1158900	n/a	LTP089	ltpFR	9	n/a	n/a	n/a	n/a	n/a	n/a	6	2	2	2	n/a	n/a	n/a	n/a	n/a
2319.066	n/a	PROB	1159533	n/a	LTP089	ltpFR	9	n/a	n/a	n/a	n/a	n/a	n/a	17	7	9	1	n/a	n/a	n/a	n/a	n/a
2321.798	n/a	PROB	1160899	n/a	LTP089	ltpFR	9	n/a	n/a	n/a	n/a	n/a	n/a	19	6	4	9	n/a	n/a	n/a	n/a	n/a
2323.608	n/a	PROB	1161804	n/a	LTP089	ltpFR	9	n/a	n/a	n/a	n/a	n/a	n/a	20	2	9	9	n/a	n/a	n/a	n/a	n/a
2325.424	n/a	PROB	1162712	n/a	LTP089	ltpFR	9	n/a	n/a	n/a	n/a	n/a	n/a	17	1	8	8	n/a	n/a	n/a	n/a	n/a
2328.014	n/a	PROB	1164007	n/a	LTP089	ltpFR	9	n/a	n/a	n/a	n/a	n/a	n/a	8	1	1	6	n/a	n/a	n/a	n/a	n/a
2330.29	n/a	STOP	1165145	n/a	LTP089	ltpFR	9	n/a	n/a	n/a	n/a	n/a	n/a	n/a	n/a	n/a	n/a	n/a	n/a	n/a	n/a	n/a
2331.19	n/a	WORD	1165595	wordpools/wasnorm_wordpool.txt	LTP089	ltpFR	9	8	0	BUFFALO	186	n/a	0	n/a	0	0	0	0	0.5869140625	0.422607421875	lower	../fonts/amplitud.ttf
2334.198	n/a	START	1167099	n/a	LTP089	ltpFR	9	n/a	n/a	n/a	n/a	n/a	n/a	n/a	n/a	n/a	n/a	n/a	n/a	n/a	n/a	n/a
2335.264	n/a	PROB	1167632	n/a	LTP089	ltpFR	9	n/a	n/a	n/a	n/a	n/a	n/a	8	2	5	1	n/a	n/a	n/a	n/a	n/a
2338.916	n/a	PROB	1169458	n/a	LTP089	ltpFR	9	n/a	n/a	n/a	n/a	n/a	n/a	13	5	1	7	n/a	n/a	n/a	n/a	n/a
2342.132	n/a	PROB	1171066	n/a	LTP089	ltpFR	9	n/a	n/a	n/a	n/a	n/a	n/a	12	6	3	3	n/a	n/a	n/a	n/a	n/a
2344.048	n/a	PROB	1172024	n/a	LTP089	ltpFR	9	n/a	n/a	n/a	n/a	n/a	n/a	9	2	6	1	n/a	n/a	n/a	n/a	n/a
2348.18	n/a	PROB	1174090	n/a	LTP089	ltpFR	9	n/a	n/a	n/a	n/a	n/a	n/a	10	2	7	1	n/a	n/a	n/a	n/a	n/a
2349.508	n/a	STOP	1174754	n/a	LTP089	ltpFR	9	n/a	n/a	n/a	n/a	n/a	n/a	n/a	n/a	n/a	n/a	n/a	n/a	n/a	n/a	n/a
2352.1	n/a	REC_START	1176050	n/a	LTP089	ltpFR	9	8	n/a	n/a	n/a	n/a	n/a	n/a	0	0	0	n/a	n/a	n/a	n/a	n/a
2358.55	n/a	REC_WORD	1179275	wordpools/wasnorm_wordpool.txt	LTP089	ltpFR	9	8	0	WINE	1613	n/a	0	n/a	0	0	0	n/a	n/a	n/a	n/a	n/a
2359.442	n/a	REC_WORD	1179721	wordpools/wasnorm_wordpool.txt	LTP089	ltpFR	9	8	0	MAMMAL	861	n/a	0	n/a	0	0	0	n/a	n/a	n/a	n/a	n/a
2360.57	n/a	REC_WORD_VV	1180285	wordpools/wasnorm_wordpool.txt	LTP089	ltpFR	9	8	n/a	<>	-1	n/a	n/a	n/a	0	0	0	n/a	n/a	n/a	n/a	n/a
2397.208	n/a	REC_WORD_VV	1198604	wordpools/wasnorm_wordpool.txt	LTP089	ltpFR	9	8	n/a	<>	-1	n/a	n/a	n/a	0	0	0	n/a	n/a	n/a	n/a	n/a
2398.208	n/a	REC_WORD_VV	1199104	wordpools/wasnorm_wordpool.txt	LTP089	ltpFR	9	8	n/a	<>	-1	n/a	n/a	n/a	0	0	0	n/a	n/a	n/a	n/a	n/a
2460.178	n/a	WORD	1230089	wordpools/wasnorm_wordpool.txt	LTP089	ltpFR	9	9	1	BUN	197	n/a	0	n/a	0	0	0	1	0.412841796875	0.57763671875	upper	../fonts/zerothre.ttf
2464.202	n/a	WORD	1232101	wordpools/wasnorm_wordpool.txt	LTP089	ltpFR	9	9	1	POPCORN	1104	n/a	0	n/a	0	0	0	1	0.412841796875	0.57763671875	upper	../fonts/zerothre.ttf
2468.138	n/a	WORD	1234069	wordpools/wasnorm_wordpool.txt	LTP089	ltpFR	9	9	0	PAGE	1001	n/a	0	n/a	0	0	0	0	0.5869140625	0.422607421875	lower	../fonts/amplitud.ttf
2472.32	n/a	WORD	1236160	wordpools/wasnorm_wordpool.txt	LTP089	ltpFR	9	9	0	AUDIENCE	59	n/a	0	n/a	0	0	0	0	0.5869140625	0.422607421875	lower	../fonts/amplitud.ttf
2476.52	n/a	WORD	1238260	wordpools/wasnorm_wordpool.txt	LTP089	ltpFR	9	9	0	STAFF	1365	n/a	2	n/a	0	0	0	0	0.5869140625	0.422607421875	lower	../fonts/amplitud.ttf
2477.136	n/a	KEY_MSG	1238568	n/a	LTP089	ltpFR	9	9	n/a	n/a	n/a	n/a	n/a	n/a	0	0	0	n/a	n/a	n/a	n/a	n/a
2480.494	n/a	WORD	1240247	wordpools/wasnorm_wordpool.txt	LTP089	ltpFR	9	9	1	LITTER	832	n/a	0	n/a	0	0	0	1	0.412841796875	0.57763671875	upper	../fonts/zerothre.ttf
2484.612	n/a	WORD	1242306	wordpools/wasnorm_wordpool.txt	LTP089	ltpFR	9	9	1	MOLECULE	905	n/a	1	n/a	0	0	0	1	0.412841796875	0.57763671875	upper	../fonts/zerothre.ttf
2488.478	n/a	WORD	1244239	wordpools/wasnorm_wordpool.txt	LTP089	ltpFR	9	9	1	HALL	677	n/a	0	n/a	0	0	0	1	0.412841796875	0.57763671875	upper	../fonts/zerothre.ttf
2492.636	n/a	WORD	1246318	wordpools/wasnorm_wordpool.txt	LTP089	ltpFR	9	9	1	WHEAT	1602	n/a	0	n/a	0	0	0	1	0.412841796875	0.57763671875	upper	../fonts/zerothre.ttf
2496.494	n/a	WORD	1248247	wordpools/wasnorm_wordpool.txt	LTP089	ltpFR	9	9	0	AUTHOR	61	n/a	2	n/a	0	0	0	0	0.5869140625	0.422607421875	lower	../fonts/amplitud.ttf
2496.786	n/a	KEY_MSG	1248393	n/a	LTP089	ltpFR	9	9	n/a	n/a	n/a	n/a	n/a	n/a	0	0	0	n/a	n/a	n/a	n/a	n/a
2500.628	n/a	WORD	1250314	wordpools/wasnorm_wordpool.txt	LTP089	ltpFR	9	9	0	SURGEON	1413	n/a	0	n/a	0	0	0	0	0.5869140625	0.422607421875	lower	../fonts/amplitud.ttf
2504.77	n/a	WORD	1252385	wordpools/wasnorm_wordpool.txt	LTP089	ltpFR	9	9	0	DOCTOR	478	n/a	0	n/a	0	0	0	0	0.5869140625	0.422607421875	lower	../fonts/amplitud.ttf
2508.71	n/a	WORD	1254355	wordpools/wasnorm_wordpool.txt	LTP089	ltpFR	9	9	0	MINT	898	n/a	0	n/a	0	0	0	0	0.5869140625	0.422607421875	lower	../fonts/amplitud.ttf
2512.928	n/a	WORD	1256464	wordpools/wasnorm_wordpool.txt	LTP089	ltpFR	9	9	0	SPIT	1354	n/a	0	n/a	0	0	0	0	0.5869140625	0.422607421875	lower	../fonts/amplitud.ttf
2517.068	n/a	WORD	1258534	wordpools/wasnorm_wordpool.txt	LTP089	ltpFR	9	9	1	FIG	563	n/a	2	n/a	0	0	0	1	0.412841796875	0.57763671875	upper	../fonts/zerothre.ttf
2517.486	n/a	KEY_MSG	1258743	n/a	LTP089	ltpFR	9	9	n/a	n/a	n/a	n/a	n/a	n/a	0	0	0	n/a	n/a	n/a	n/a	n/a
2520.984	n/a	WORD	1260492	wordpools/wasnorm_wordpool.txt	LTP089	ltpFR	9	9	1	TRAY	1498	n/a	1	n/a	0	0	0	1	0.412841796875	0.57763671875	upper	../fonts/zerothre.ttf
2523.994	n/a	START	1261997	n/a	LTP089	ltpFR	9	n/a	n/a	n/a	n/a	n/a	n/a	n/a	n/a	n/a	n/a	n/a	n/a	n/a	n/a	n/a
2524.844	n/a	PROB	1262422	n/a	LTP089	ltpFR	9	n/a	n/a	n/a	n/a	n/a	n/a	10	4	3	3	n/a	n/a	n/a	n/a	n/a
2531.994	n/a	STOP	1265997	n/a	LTP089	ltpFR	9	n/a	n/a	n/a	n/a	n/a	n/a	n/a	n/a	n/a	n/a	n/a	n/a	n/a	n/a	n/a
2533.91	n/a	REC_START	1266955	n/a	LTP089	ltpFR	9	9	n/a	n/a	n/a	n/a	n/a	n/a	0	0	0	n/a	n/a	n/a	n/a	n/a
2539.104	n/a	REC_WORD	1269552	wordpools/wasnorm_wordpool.txt	LTP089	ltpFR	9	9	0	AUDIENCE	59	n/a	0	n/a	0	0	0	n/a	n/a	n/a	n/a	n/a
2540.734	n/a	REC_WORD	1270367	wordpools/wasnorm_wordpool.txt	LTP089	ltpFR	9	9	0	PAGE	1001	n/a	0	n/a	0	0	0	n/a	n/a	n/a	n/a	n/a
2544.482	n/a	REC_WORD	1272241	wordpools/wasnorm_wordpool.txt	LTP089	ltpFR	9	9	1	MOLECULE	905	n/a	1	n/a	0	0	0	n/a	n/a	n/a	n/a	n/a
2611.466	n/a	WORD	1305733	wordpools/wasnorm_wordpool.txt	LTP089	ltpFR	9	10	0	ASTRONAUT	51	n/a	0	n/a	0	0	0	0	0.5869140625	0.422607421875	lower	../fonts/amplitud.ttf
2615.482	n/a	WORD	1307741	wordpools/wasnorm_wordpool.txt	LTP089	ltpFR	9	10	0	WAREHOUSE	1588	n/a	1	n/a	0	0	0	0	0.5869140625	0.422607421875	lower	../fonts/amplitud.ttf
2619.524	n/a	WORD	1309762	wordpools/wasnorm_wordpool.txt	LTP089	ltpFR	9	10	0	MANSION	864	n/a	1	n/a	0	0	0	0	0.5869140625	0.422607421875	lower	../fonts/amplitud.ttf
2623.508	n/a	WORD	1311754	wordpools/wasnorm_wordpool.txt	LTP089	ltpFR	9	10	0	WORM	1623	n/a	1	n/a	0	0	0	0	0.5869140625	0.422607421875	lower	../fonts/amplitud.ttf
2627.474	n/a	WORD	1313737	wordpools/wasnorm_wordpool.txt	LTP089	ltpFR	9	10	0	TREASURE	1500	n/a	1	n/a	0	0	0	0	0.5869140625	0.422607421875	lower	../fonts/amplitud.ttf
2631.666	n/a	WORD	1315833	wordpools/wasnorm_wordpool.txt	LTP089	ltpFR	9	10	0	GARBAGE	622	n/a	1	n/a	0	0	0	0	0.5869140625	0.422607421875	lower	../fonts/amplitud.ttf
2635.832	n/a	WORD	1317916	wordpools/wasnorm_wordpool.txt	LTP089	ltpFR	9	10	0	CEILING	265	n/a	1	n/a	0	0	0	0	0.5869140625	0.422607421875	lower	../fonts/amplitud.ttf
2639.75	n/a	WORD	1319875	wordpools/wasnorm_wordpool.txt	LTP089	ltpFR	9	10	0	PUBLISHER	1137	n/a	1	n/a	0	0	0	0	0.5869140625	0.422607421875	lower	../fonts/amplitud.ttf
2643.582	n/a	WORD	1321791	wordpools/wasnorm_wordpool.txt	LTP089	ltpFR	9	10	0	BUSH	202	n/a	1	n/a	0	0	0	0	0.5869140625	0.422607421875	lower	../fonts/amplitud.ttf
2647.608	n/a	WORD	1323804	wordpools/wasnorm_wordpool.txt	LTP089	ltpFR	9	10	0	STEM	1376	n/a	1	n/a	0	0	0	0	0.5869140625	0.422607421875	lower	../fonts/amplitud.ttf
2651.49	n/a	WORD	1325745	wordpools/wasnorm_wordpool.txt	LTP089	ltpFR	9	10	0	CANDIDATE	228	n/a	1	n/a	0	0	0	0	0.5869140625	0.422607421875	lower	../fonts/amplitud.ttf
2655.432	n/a	WORD	1327716	wordpools/wasnorm_wordpool.txt	LTP089	ltpFR	9	10	0	SHELTER	1282	n/a	1	n/a	0	0	0	0	0.5869140625	0.422607421875	lower	../fonts/amplitud.ttf
2659.458	n/a	WORD	1329729	wordpools/wasnorm_wordpool.txt	LTP089	ltpFR	9	10	0	CENT	270	n/a	1	n/a	0	0	0	0	0.5869140625	0.422607421875	lower	../fonts/amplitud.ttf
2663.516	n/a	WORD	1331758	wordpools/wasnorm_wordpool.txt	LTP089	ltpFR	9	10	0	CLAM	315	n/a	1	n/a	0	0	0	0	0.5869140625	0.422607421875	lower	../fonts/amplitud.ttf
2667.448	n/a	WORD	1333724	wordpools/wasnorm_wordpool.txt	LTP089	ltpFR	9	10	0	UMPIRE	1535	n/a	1	n/a	0	0	0	0	0.5869140625	0.422607421875	lower	../fonts/amplitud.ttf
2671.656	n/a	WORD	1335828	wordpools/wasnorm_wordpool.txt	LTP089	ltpFR	9	10	0	BASEBALL	93	n/a	1	n/a	0	0	0	0	0.5869140625	0.422607421875	lower	../fonts/amplitud.ttf
2674.664	n/a	START	1337332	n/a	LTP089	ltpFR	9	n/a	n/a	n/a	n/a	n/a	n/a	n/a	n/a	n/a	n/a	n/a	n/a	n/a	n/a	n/a
2675.698	n/a	PROB	1337849	n/a	LTP089	ltpFR	9	n/a	n/a	n/a	n/a	n/a	n/a	9	2	6	1	n/a	n/a	n/a	n/a	n/a
2677.974	n/a	PROB	1338987	n/a	LTP089	ltpFR	9	n/a	n/a	n/a	n/a	n/a	n/a	17	2	8	7	n/a	n/a	n/a	n/a	n/a
2680.924	n/a	PROB	1340462	n/a	LTP089	ltpFR	9	n/a	n/a	n/a	n/a	n/a	n/a	16	5	8	3	n/a	n/a	n/a	n/a	n/a
2684.606	n/a	PROB	1342303	n/a	LTP089	ltpFR	9	n/a	n/a	n/a	n/a	n/a	n/a	18	3	8	7	n/a	n/a	n/a	n/a	n/a
2687.998	n/a	PROB	1343999	n/a	LTP089	ltpFR	9	n/a	n/a	n/a	n/a	n/a	n/a	15	6	4	5	n/a	n/a	n/a	n/a	n/a
2689.556	n/a	STOP	1344778	n/a	LTP089	ltpFR	9	n/a	n/a	n/a	n/a	n/a	n/a	n/a	n/a	n/a	n/a	n/a	n/a	n/a	n/a	n/a
2692.44	n/a	REC_START	1346220	n/a	LTP089	ltpFR	9	10	n/a	n/a	n/a	n/a	n/a	n/a	0	0	0	n/a	n/a	n/a	n/a	n/a
2703.464	n/a	REC_WORD	1351732	wordpools/wasnorm_wordpool.txt	LTP089	ltpFR	9	10	0	BUSH	202	n/a	1	n/a	0	0	0	n/a	n/a	n/a	n/a	n/a
2704.658	n/a	REC_WORD	1352329	wordpools/wasnorm_wordpool.txt	LTP089	ltpFR	9	10	0	STEM	1376	n/a	1	n/a	0	0	0	n/a	n/a	n/a	n/a	n/a
2706.882	n/a	REC_WORD	1353441	wordpools/wasnorm_wordpool.txt	LTP089	ltpFR	9	10	0	CANDIDATE	228	n/a	1	n/a	0	0	0	n/a	n/a	n/a	n/a	n/a
2768.046	n/a	REST_REWET	1384023	n/a	LTP089	ltpFR	9	10	n/a	n/a	n/a	n/a	n/a	n/a	0	0	0	n/a	n/a	n/a	n/a	n/a
3337.082	n/a	START	1668541	n/a	LTP089	ltpFR	9	n/a	n/a	n/a	n/a	n/a	n/a	n/a	n/a	n/a	n/a	n/a	n/a	n/a	n/a	n/a
3338.59	n/a	PROB	1669295	n/a	LTP089	ltpFR	9	n/a	n/a	n/a	n/a	n/a	n/a	16	7	6	3	n/a	n/a	n/a	n/a	n/a
3340.822	n/a	PROB	1670411	n/a	LTP089	ltpFR	9	n/a	n/a	n/a	n/a	n/a	n/a	12	3	5	4	n/a	n/a	n/a	n/a	n/a
3344.118	n/a	STOP	1672059	n/a	LTP089	ltpFR	9	n/a	n/a	n/a	n/a	n/a	n/a	n/a	n/a	n/a	n/a	n/a	n/a	n/a	n/a	n/a
3345.956	n/a	WORD	1672978	wordpools/wasnorm_wordpool.txt	LTP089	ltpFR	9	11	1	ZOO	1637	n/a	0	n/a	0	0	0	1	0.412841796875	0.57763671875	upper	../fonts/zerothre.ttf
3348.964	n/a	START	1674482	n/a	LTP089	ltpFR	9	n/a	n/a	n/a	n/a	n/a	n/a	n/a	n/a	n/a	n/a	n/a	n/a	n/a	n/a	n/a
3350.038	n/a	PROB	1675019	n/a	LTP089	ltpFR	9	n/a	n/a	n/a	n/a	n/a	n/a	12	6	2	4	n/a	n/a	n/a	n/a	n/a
3351.446	n/a	PROB	1675723	n/a	LTP089	ltpFR	9	n/a	n/a	n/a	n/a	n/a	n/a	17	1	9	7	n/a	n/a	n/a	n/a	n/a
3353.13	n/a	PROB	1676565	n/a	LTP089	ltpFR	9	n/a	n/a	n/a	n/a	n/a	n/a	21	3	6	3	n/a	n/a	n/a	n/a	n/a
3355.536	n/a	STOP	1677768	n/a	LTP089	ltpFR	9	n/a	n/a	n/a	n/a	n/a	n/a	n/a	n/a	n/a	n/a	n/a	n/a	n/a	n/a	n/a
3358.038	n/a	WORD	1679019	wordpools/wasnorm_wordpool.txt	LTP089	ltpFR	9	11	1	FRAGRANCE	599	n/a	0	n/a	0	0	0	1	0.412841796875	0.57763671875	upper	../fonts/zerothre.ttf
3361.038	n/a	START	1680519	n/a	LTP089	ltpFR	9	n/a	n/a	n/a	n/a	n/a	n/a	n/a	n/a	n/a	n/a	n/a	n/a	n/a	n/a	n/a
3361.856	n/a	PROB	1680928	n/a	LTP089	ltpFR	9	n/a	n/a	n/a	n/a	n/a	n/a	12	7	2	3	n/a	n/a	n/a	n/a	n/a
3363.262	n/a	PROB	1681631	n/a	LTP089	ltpFR	9	n/a	n/a	n/a	n/a	n/a	n/a	20	9	3	8	n/a	n/a	n/a	n/a	n/a
3369.038	n/a	STOP	1684519	n/a	LTP089	ltpFR	9	n/a	n/a	n/a	n/a	n/a	n/a	n/a	n/a	n/a	n/a	n/a	n/a	n/a	n/a	n/a
3370.08	n/a	WORD	1685040	wordpools/wasnorm_wordpool.txt	LTP089	ltpFR	9	11	1	LIVER	833	n/a	0	n/a	0	0	0	1	0.412841796875	0.57763671875	upper	../fonts/zerothre.ttf
3373.09	n/a	START	1686545	n/a	LTP089	ltpFR	9	n/a	n/a	n/a	n/a	n/a	n/a	n/a	n/a	n/a	n/a	n/a	n/a	n/a	n/a	n/a
3374.28	n/a	PROB	1687140	n/a	LTP089	ltpFR	9	n/a	n/a	n/a	n/a	n/a	n/a	19	8	6	5	n/a	n/a	n/a	n/a	n/a
3378.214	n/a	PROB	1689107	n/a	LTP089	ltpFR	9	n/a	n/a	n/a	n/a	n/a	n/a	19	8	5	6	n/a	n/a	n/a	n/a	n/a
3380.968	n/a	STOP	1690484	n/a	LTP089	ltpFR	9	n/a	n/a	n/a	n/a	n/a	n/a	n/a	n/a	n/a	n/a	n/a	n/a	n/a	n/a	n/a
3382.246	n/a	WORD	1691123	wordpools/wasnorm_wordpool.txt	LTP089	ltpFR	9	11	1	TREE	1502	n/a	0	n/a	0	0	0	1	0.412841796875	0.57763671875	upper	../fonts/zerothre.ttf
3385.254	n/a	START	1692627	n/a	LTP089	ltpFR	9	n/a	n/a	n/a	n/a	n/a	n/a	n/a	n/a	n/a	n/a	n/a	n/a	n/a	n/a	n/a
3386.12	n/a	PROB	1693060	n/a	LTP089	ltpFR	9	n/a	n/a	n/a	n/a	n/a	n/a	10	1	6	3	n/a	n/a	n/a	n/a	n/a
3388.62	n/a	PROB	1694310	n/a	LTP089	ltpFR	9	n/a	n/a	n/a	n/a	n/a	n/a	11	3	6	2	n/a	n/a	n/a	n/a	n/a
3393.254	n/a	STOP	1696627	n/a	LTP089	ltpFR	9	n/a	n/a	n/a	n/a	n/a	n/a	n/a	n/a	n/a	n/a	n/a	n/a	n/a	n/a	n/a
3394.286	n/a	WORD	1697143	wordpools/wasnorm_wordpool.txt	LTP089	ltpFR	9	11	0	UNICORN	1538	n/a	2	n/a	0	0	0	0	0.5869140625	0.422607421875	lower	../fonts/amplitud.ttf
3394.988	n/a	KEY_MSG	1697494	n/a	LTP089	ltpFR	9	11	n/a	n/a	n/a	n/a	n/a	n/a	0	0	0	n/a	n/a	n/a	n/a	n/a
3397.288	n/a	START	1698644	n/a	LTP089	ltpFR	9	n/a	n/a	n/a	n/a	n/a	n/a	n/a	n/a	n/a	n/a	n/a	n/a	n/a	n/a	n/a
3398.104	n/a	PROB	1699052	n/a	LTP089	ltpFR	9	n/a	n/a	n/a	n/a	n/a	n/a	18	1	9	8	n/a	n/a	n/a	n/a	n/a
3399.838	n/a	PROB	1699919	n/a	LTP089	ltpFR	9	n/a	n/a	n/a	n/a	n/a	n/a	14	5	6	3	n/a	n/a	n/a	n/a	n/a
3405.286	n/a	STOP	1702643	n/a	LTP089	ltpFR	9	n/a	n/a	n/a	n/a	n/a	n/a	n/a	n/a	n/a	n/a	n/a	n/a	n/a	n/a	n/a
3406.32	n/a	WORD	1703160	wordpools/wasnorm_wordpool.txt	LTP089	ltpFR	9	11	0	FROST	609	n/a	0	n/a	0	0	0	0	0.5869140625	0.422607421875	lower	../fonts/amplitud.ttf
3409.328	n/a	START	1704664	n/a	LTP089	ltpFR	9	n/a	n/a	n/a	n/a	n/a	n/a	n/a	n/a	n/a	n/a	n/a	n/a	n/a	n/a	n/a
3410.386	n/a	PROB	1705193	n/a	LTP089	ltpFR	9	n/a	n/a	n/a	n/a	n/a	n/a	13	5	6	2	n/a	n/a	n/a	n/a	n/a
3412.67	n/a	PROB	1706335	n/a	LTP089	ltpFR	9	n/a	n/a	n/a	n/a	n/a	n/a	14	5	1	8	n/a	n/a	n/a	n/a	n/a
3415.962	n/a	STOP	1707981	n/a	LTP089	ltpFR	9	n/a	n/a	n/a	n/a	n/a	n/a	n/a	n/a	n/a	n/a	n/a	n/a	n/a	n/a	n/a
3418.32	n/a	WORD	1709160	wordpools/wasnorm_wordpool.txt	LTP089	ltpFR	9	11	0	PIT	1077	n/a	2	n/a	0	0	0	0	0.5869140625	0.422607421875	lower	../fonts/amplitud.ttf
3419.096	n/a	KEY_MSG	1709548	n/a	LTP089	ltpFR	9	11	n/a	n/a	n/a	n/a	n/a	n/a	0	0	0	n/a	n/a	n/a	n/a	n/a
3421.328	n/a	START	1710664	n/a	LTP089	ltpFR	9	n/a	n/a	n/a	n/a	n/a	n/a	n/a	n/a	n/a	n/a	n/a	n/a	n/a	n/a	n/a
3422.204	n/a	PROB	1711102	n/a	LTP089	ltpFR	9	n/a	n/a	n/a	n/a	n/a	n/a	12	1	5	6	n/a	n/a	n/a	n/a	n/a
3424.378	n/a	PROB	1712189	n/a	LTP089	ltpFR	9	n/a	n/a	n/a	n/a	n/a	n/a	7	4	1	2	n/a	n/a	n/a	n/a	n/a
3429.328	n/a	STOP	1714664	n/a	LTP089	ltpFR	9	n/a	n/a	n/a	n/a	n/a	n/a	n/a	n/a	n/a	n/a	n/a	n/a	n/a	n/a	n/a
3430.212	n/a	WORD	1715106	wordpools/wasnorm_wordpool.txt	LTP089	ltpFR	9	11	0	TRENCH	1503	n/a	0	n/a	0	0	0	0	0.5869140625	0.422607421875	lower	../fonts/amplitud.ttf
3433.22	n/a	START	1716610	n/a	LTP089	ltpFR	9	n/a	n/a	n/a	n/a	n/a	n/a	n/a	n/a	n/a	n/a	n/a	n/a	n/a	n/a	n/a
3434.244	n/a	PROB	1717122	n/a	LTP089	ltpFR	9	n/a	n/a	n/a	n/a	n/a	n/a	14	9	4	1	n/a	n/a	n/a	n/a	n/a
3436.196	n/a	PROB	1718098	n/a	LTP089	ltpFR	9	n/a	n/a	n/a	n/a	n/a	n/a	14	9	3	2	n/a	n/a	n/a	n/a	n/a
3441.22	n/a	STOP	1720610	n/a	LTP089	ltpFR	9	n/a	n/a	n/a	n/a	n/a	n/a	n/a	n/a	n/a	n/a	n/a	n/a	n/a	n/a	n/a
3442.302	n/a	WORD	1721151	wordpools/wasnorm_wordpool.txt	LTP089	ltpFR	9	11	1	CUB	419	n/a	2	n/a	0	0	0	1	0.412841796875	0.57763671875	upper	../fonts/zerothre.ttf
3443.086	n/a	KEY_MSG	1721543	n/a	LTP089	ltpFR	9	11	n/a	n/a	n/a	n/a	n/a	n/a	0	0	0	n/a	n/a	n/a	n/a	n/a
3445.302	n/a	START	1722651	n/a	LTP089	ltpFR	9	n/a	n/a	n/a	n/a	n/a	n/a	n/a	n/a	n/a	n/a	n/a	n/a	n/a	n/a	n/a
3446.486	n/a	PROB	1723243	n/a	LTP089	ltpFR	9	n/a	n/a	n/a	n/a	n/a	n/a	21	9	9	3	n/a	n/a	n/a	n/a	n/a
3448.852	n/a	PROB	1724426	n/a	LTP089	ltpFR	9	n/a	n/a	n/a	n/a	n/a	n/a	14	3	4	7	n/a	n/a	n/a	n/a	n/a
3453.304	n/a	STOP	1726652	n/a	LTP089	ltpFR	9	n/a	n/a	n/a	n/a	n/a	n/a	n/a	n/a	n/a	n/a	n/a	n/a	n/a	n/a	n/a
3454.368	n/a	WORD	1727184	wordpools/wasnorm_wordpool.txt	LTP089	ltpFR	9	11	1	BRANCH	168	n/a	0	n/a	0	0	0	1	0.412841796875	0.57763671875	upper	../fonts/zerothre.ttf
3457.378	n/a	START	1728689	n/a	LTP089	ltpFR	9	n/a	n/a	n/a	n/a	n/a	n/a	n/a	n/a	n/a	n/a	n/a	n/a	n/a	n/a	n/a
3458.368	n/a	PROB	1729184	n/a	LTP089	ltpFR	9	n/a	n/a	n/a	n/a	n/a	n/a	8	4	2	2	n/a	n/a	n/a	n/a	n/a
3460.318	n/a	PROB	1730159	n/a	LTP089	ltpFR	9	n/a	n/a	n/a	n/a	n/a	n/a	12	3	2	7	n/a	n/a	n/a	n/a	n/a
3462.002	n/a	PROB	1731001	n/a	LTP089	ltpFR	9	n/a	n/a	n/a	n/a	n/a	n/a	19	7	3	9	n/a	n/a	n/a	n/a	n/a
3465.378	n/a	STOP	1732689	n/a	LTP089	ltpFR	9	n/a	n/a	n/a	n/a	n/a	n/a	n/a	n/a	n/a	n/a	n/a	n/a	n/a	n/a	n/a
3466.31	n/a	WORD	1733155	wordpools/wasnorm_wordpool.txt	LTP089	ltpFR	9	11	1	COLESLAW	344	n/a	0	n/a	0	0	0	1	0.412841796875	0.57763671875	upper	../fonts/zerothre.ttf
3469.318	n/a	START	1734659	n/a	LTP089	ltpFR	9	n/a	n/a	n/a	n/a	n/a	n/a	n/a	n/a	n/a	n/a	n/a	n/a	n/a	n/a	n/a
3470.436	n/a	PROB	1735218	n/a	LTP089	ltpFR	9	n/a	n/a	n/a	n/a	n/a	n/a	13	2	5	6	n/a	n/a	n/a	n/a	n/a
3472.87	n/a	PROB	1736435	n/a	LTP089	ltpFR	9	n/a	n/a	n/a	n/a	n/a	n/a	15	2	8	5	n/a	n/a	n/a	n/a	n/a
3477.318	n/a	STOP	1738659	n/a	LTP089	ltpFR	9	n/a	n/a	n/a	n/a	n/a	n/a	n/a	n/a	n/a	n/a	n/a	n/a	n/a	n/a	n/a
3478.486	n/a	WORD	1739243	wordpools/wasnorm_wordpool.txt	LTP089	ltpFR	9	11	1	AIRCRAFT	11	n/a	0	n/a	0	0	0	1	0.412841796875	0.57763671875	upper	../fonts/zerothre.ttf
3481.494	n/a	START	1740747	n/a	LTP089	ltpFR	9	n/a	n/a	n/a	n/a	n/a	n/a	n/a	n/a	n/a	n/a	n/a	n/a	n/a	n/a	n/a
3482.694	n/a	PROB	1741347	n/a	LTP089	ltpFR	9	n/a	n/a	n/a	n/a	n/a	n/a	13	3	9	1	n/a	n/a	n/a	n/a	n/a
3484.834	n/a	PROB	1742417	n/a	LTP089	ltpFR	9	n/a	n/a	n/a	n/a	n/a	n/a	19	7	7	5	n/a	n/a	n/a	n/a	n/a
3488.486	n/a	STOP	1744243	n/a	LTP089	ltpFR	9	n/a	n/a	n/a	n/a	n/a	n/a	n/a	n/a	n/a	n/a	n/a	n/a	n/a	n/a	n/a
3490.668	n/a	WORD	1745334	wordpools/wasnorm_wordpool.txt	LTP089	ltpFR	9	11	0	SALAD	1224	n/a	2	n/a	0	0	0	0	0.5869140625	0.422607421875	lower	../fonts/amplitud.ttf
3490.952	n/a	KEY_MSG	1745476	n/a	LTP089	ltpFR	9	11	n/a	n/a	n/a	n/a	n/a	n/a	0	0	0	n/a	n/a	n/a	n/a	n/a
3493.67	n/a	START	1746835	n/a	LTP089	ltpFR	9	n/a	n/a	n/a	n/a	n/a	n/a	n/a	n/a	n/a	n/a	n/a	n/a	n/a	n/a	n/a
3494.668	n/a	PROB	1747334	n/a	LTP089	ltpFR	9	n/a	n/a	n/a	n/a	n/a	n/a	15	4	7	4	n/a	n/a	n/a	n/a	n/a
3497.152	n/a	PROB	1748576	n/a	LTP089	ltpFR	9	n/a	n/a	n/a	n/a	n/a	n/a	9	1	2	6	n/a	n/a	n/a	n/a	n/a
3501.668	n/a	STOP	1750834	n/a	LTP089	ltpFR	9	n/a	n/a	n/a	n/a	n/a	n/a	n/a	n/a	n/a	n/a	n/a	n/a	n/a	n/a	n/a
3502.492	n/a	WORD	1751246	wordpools/wasnorm_wordpool.txt	LTP089	ltpFR	9	11	0	VEGETABLE	1552	n/a	0	n/a	0	0	0	0	0.5869140625	0.422607421875	lower	../fonts/amplitud.ttf
3505.502	n/a	START	1752751	n/a	LTP089	ltpFR	9	n/a	n/a	n/a	n/a	n/a	n/a	n/a	n/a	n/a	n/a	n/a	n/a	n/a	n/a	n/a
3506.41	n/a	PROB	1753205	n/a	LTP089	ltpFR	9	n/a	n/a	n/a	n/a	n/a	n/a	21	9	5	8	n/a	n/a	n/a	n/a	n/a
3513.502	n/a	STOP	1756751	n/a	LTP089	ltpFR	9	n/a	n/a	n/a	n/a	n/a	n/a	n/a	n/a	n/a	n/a	n/a	n/a	n/a	n/a	n/a
3514.542	n/a	WORD	1757271	wordpools/wasnorm_wordpool.txt	LTP089	ltpFR	9	11	0	COWBOY	395	n/a	0	n/a	0	0	0	0	0.5869140625	0.422607421875	lower	../fonts/amplitud.ttf
3517.544	n/a	START	1758772	n/a	LTP089	ltpFR	9	n/a	n/a	n/a	n/a	n/a	n/a	n/a	n/a	n/a	n/a	n/a	n/a	n/a	n/a	n/a
3518.374	n/a	PROB	1759187	n/a	LTP089	ltpFR	9	n/a	n/a	n/a	n/a	n/a	n/a	10	6	2	2	n/a	n/a	n/a	n/a	n/a
3520.25	n/a	PROB	1760125	n/a	LTP089	ltpFR	9	n/a	n/a	n/a	n/a	n/a	n/a	20	8	5	7	n/a	n/a	n/a	n/a	n/a
3525.544	n/a	STOP	1762772	n/a	LTP089	ltpFR	9	n/a	n/a	n/a	n/a	n/a	n/a	n/a	n/a	n/a	n/a	n/a	n/a	n/a	n/a	n/a
3526.416	n/a	WORD	1763208	wordpools/wasnorm_wordpool.txt	LTP089	ltpFR	9	11	0	MULE	931	n/a	0	n/a	0	0	0	0	0.5869140625	0.422607421875	lower	../fonts/amplitud.ttf
3529.418	n/a	START	1764709	n/a	LTP089	ltpFR	9	n/a	n/a	n/a	n/a	n/a	n/a	n/a	n/a	n/a	n/a	n/a	n/a	n/a	n/a	n/a
3530.25	n/a	PROB	1765125	n/a	LTP089	ltpFR	9	n/a	n/a	n/a	n/a	n/a	n/a	9	4	3	2	n/a	n/a	n/a	n/a	n/a
3533.434	n/a	PROB	1766717	n/a	LTP089	ltpFR	9	n/a	n/a	n/a	n/a	n/a	n/a	13	2	9	2	n/a	n/a	n/a	n/a	n/a
3536.04	n/a	STOP	1768020	n/a	LTP089	ltpFR	9	n/a	n/a	n/a	n/a	n/a	n/a	n/a	n/a	n/a	n/a	n/a	n/a	n/a	n/a	n/a
3539.242	n/a	REC_START	1769621	n/a	LTP089	ltpFR	9	11	n/a	n/a	n/a	n/a	n/a	n/a	0	0	0	n/a	n/a	n/a	n/a	n/a
3543.138	n/a	REC_WORD	1771569	wordpools/wasnorm_wordpool.txt	LTP089	ltpFR	9	11	0	MULE	931	n/a	0	n/a	0	0	0	n/a	n/a	n/a	n/a	n/a
3544.076	n/a	REC_WORD	1772038	wordpools/wasnorm_wordpool.txt	LTP089	ltpFR	9	11	1	ZOO	1637	n/a	0	n/a	0	0	0	n/a	n/a	n/a	n/a	n/a
3545.388	n/a	REC_WORD	1772694	wordpools/wasnorm_wordpool.txt	LTP089	ltpFR	9	11	1	BRANCH	168	n/a	0	n/a	0	0	0	n/a	n/a	n/a	n/a	n/a
3546.296	n/a	REC_WORD	1773148	wordpools/wasnorm_wordpool.txt	LTP089	ltpFR	9	11	1	TREE	1502	n/a	0	n/a	0	0	0	n/a	n/a	n/a	n/a	n/a
3659.78	n/a	WORD	1829890	wordpools/wasnorm_wordpool.txt	LTP089	ltpFR	9	12	1	SLIME	1327	n/a	2	n/a	0	0	0	1	0.412841796875	0.57763671875	upper	../fonts/zerothre.ttf
3660.606	n/a	KEY_MSG	1830303	n/a	LTP089	ltpFR	9	12	n/a	n/a	n/a	n/a	n/a	n/a	0	0	0	n/a	n/a	n/a	n/a	n/a
3663.63	n/a	WORD	1831815	wordpools/wasnorm_wordpool.txt	LTP089	ltpFR	9	12	1	BURGLAR	200	n/a	0	n/a	0	0	0	1	0.412841796875	0.57763671875	upper	../fonts/zerothre.ttf
3667.73	n/a	WORD	1833865	wordpools/wasnorm_wordpool.txt	LTP089	ltpFR	9	12	1	NAVIGATOR	938	n/a	0	n/a	0	0	0	1	0.412841796875	0.57763671875	upper	../fonts/zerothre.ttf
3671.588	n/a	WORD	1835794	wordpools/wasnorm_wordpool.txt	LTP089	ltpFR	9	12	1	CAPTAIN	239	n/a	0	n/a	0	0	0	1	0.412841796875	0.57763671875	upper	../fonts/zerothre.ttf
3675.496	n/a	WORD	1837748	wordpools/wasnorm_wordpool.txt	LTP089	ltpFR	9	12	1	DRYER	503	n/a	0	n/a	0	0	0	1	0.412841796875	0.57763671875	upper	../fonts/zerothre.ttf
3679.37	n/a	WORD	1839685	wordpools/wasnorm_wordpool.txt	LTP089	ltpFR	9	12	1	BREAD	170	n/a	0	n/a	0	0	0	1	0.412841796875	0.57763671875	upper	../fonts/zerothre.ttf
3683.354	n/a	WORD	1841677	wordpools/wasnorm_wordpool.txt	LTP089	ltpFR	9	12	1	MUFFIN	929	n/a	0	n/a	0	0	0	1	0.412841796875	0.57763671875	upper	../fonts/zerothre.ttf
3687.288	n/a	WORD	1843644	wordpools/wasnorm_wordpool.txt	LTP089	ltpFR	9	12	1	BRACELET	163	n/a	0	n/a	0	0	0	1	0.412841796875	0.57763671875	upper	../fonts/zerothre.ttf
3691.354	n/a	WORD	1845677	wordpools/wasnorm_wordpool.txt	LTP089	ltpFR	9	12	1	LAWN	805	n/a	0	n/a	0	0	0	1	0.412841796875	0.57763671875	upper	../fonts/zerothre.ttf
3695.496	n/a	WORD	1847748	wordpools/wasnorm_wordpool.txt	LTP089	ltpFR	9	12	1	SUGAR	1401	n/a	0	n/a	0	0	0	1	0.412841796875	0.57763671875	upper	../fonts/zerothre.ttf
3699.688	n/a	WORD	1849844	wordpools/wasnorm_wordpool.txt	LTP089	ltpFR	9	12	1	BARRACUDA	90	n/a	0	n/a	0	0	0	1	0.412841796875	0.57763671875	upper	../fonts/zerothre.ttf
3703.654	n/a	WORD	1851827	wordpools/wasnorm_wordpool.txt	LTP089	ltpFR	9	12	1	MONGOOSE	909	n/a	0	n/a	0	0	0	1	0.412841796875	0.57763671875	upper	../fonts/zerothre.ttf
3707.512	n/a	WORD	1853756	wordpools/wasnorm_wordpool.txt	LTP089	ltpFR	9	12	1	FUR	615	n/a	0	n/a	0	0	0	1	0.412841796875	0.57763671875	upper	../fonts/zerothre.ttf
3711.52	n/a	WORD	1855760	wordpools/wasnorm_wordpool.txt	LTP089	ltpFR	9	12	1	HANGER	687	n/a	0	n/a	0	0	0	1	0.412841796875	0.57763671875	upper	../fonts/zerothre.ttf
3715.554	n/a	WORD	1857777	wordpools/wasnorm_wordpool.txt	LTP089	ltpFR	9	12	1	PEARL	1034	n/a	0	n/a	0	0	0	1	0.412841796875	0.57763671875	upper	../fonts/zerothre.ttf
3719.628	n/a	WORD	1859814	wordpools/wasnorm_wordpool.txt	LTP089	ltpFR	9	12	1	NEPTUNE	943	n/a	0	n/a	0	0	0	1	0.412841796875	0.57763671875	upper	../fonts/zerothre.ttf
3725.472	n/a	REC_START	1862736	n/a	LTP089	ltpFR	9	12	n/a	n/a	n/a	n/a	n/a	n/a	0	0	0	n/a	n/a	n/a	n/a	n/a
3726.884	n/a	REC_WORD	1863442	wordpools/wasnorm_wordpool.txt	LTP089	ltpFR	9	12	1	NEPTUNE	943	n/a	0	n/a	0	0	0	n/a	n/a	n/a	n/a	n/a
3727.71	n/a	REC_WORD	1863855	wordpools/wasnorm_wordpool.txt	LTP089	ltpFR	9	12	1	FUR	615	n/a	0	n/a	0	0	0	n/a	n/a	n/a	n/a	n/a
3728.55	n/a	REC_WORD	1864275	wordpools/wasnorm_wordpool.txt	LTP089	ltpFR	9	12	1	HANGER	687	n/a	0	n/a	0	0	0	n/a	n/a	n/a	n/a	n/a
3737.494	n/a	REC_WORD	1868747	wordpools/wasnorm_wordpool.txt	LTP089	ltpFR	9	12	1	PEARL	1034	n/a	0	n/a	0	0	0	n/a	n/a	n/a	n/a	n/a
3814.31	n/a	REC_START	1907155	n/a	LTP089	ltpFR	9	n/a	n/a	n/a	n/a	n/a	n/a	n/a	0	0	0	n/a	n/a	n/a	n/a	n/a
3816.668	n/a	FFR_REC_WORD	1908334	wordpools/wasnorm_wordpool.txt	LTP089	ltpFR	9	n/a	1	PEARL	1034	n/a	0	n/a	0	0	0	n/a	n/a	n/a	n/a	n/a
3816.962	n/a	FFR_REC_WORD	1908481	wordpools/wasnorm_wordpool.txt	LTP089	ltpFR	9	n/a	1	FUR	615	n/a	0	n/a	0	0	0	n/a	n/a	n/a	n/a	n/a
3817.416	n/a	FFR_REC_WORD	1908708	wordpools/wasnorm_wordpool.txt	LTP089	ltpFR	9	n/a	1	HANGER	687	n/a	0	n/a	0	0	0	n/a	n/a	n/a	n/a	n/a
3817.932	n/a	FFR_REC_WORD	1908966	wordpools/wasnorm_wordpool.txt	LTP089	ltpFR	9	n/a	1	NEPTUNE	943	n/a	0	n/a	0	0	0	n/a	n/a	n/a	n/a	n/a
3820.846	n/a	FFR_REC_WORD	1910423	wordpools/wasnorm_wordpool.txt	LTP089	ltpFR	9	n/a	n/a	RHINOCEROS	-1	n/a	n/a	n/a	0	0	0	n/a	n/a	n/a	n/a	n/a
3822.82	n/a	FFR_REC_WORD	1911410	wordpools/wasnorm_wordpool.txt	LTP089	ltpFR	9	n/a	1	MONGOOSE	909	n/a	0	n/a	0	0	0	n/a	n/a	n/a	n/a	n/a
3825.8	n/a	FFR_REC_WORD	1912900	wordpools/wasnorm_wordpool.txt	LTP089	ltpFR	9	n/a	n/a	AVALON	-1	n/a	n/a	n/a	0	0	0	n/a	n/a	n/a	n/a	n/a
3841.19	n/a	FFR_REC_WORD	1920595	wordpools/wasnorm_wordpool.txt	LTP089	ltpFR	9	n/a	1	BRANCH	168	n/a	0	n/a	0	0	0	n/a	n/a	n/a	n/a	n/a
3841.756	n/a	FFR_REC_WORD	1920878	wordpools/wasnorm_wordpool.txt	LTP089	ltpFR	9	n/a	1	TREE	1502	n/a	0	n/a	0	0	0	n/a	n/a	n/a	n/a	n/a
3951.928	n/a	FFR_REC_WORD	1975964	wordpools/wasnorm_wordpool.txt	LTP089	ltpFR	9	n/a	1	ZOO	1637	n/a	0	n/a	0	0	0	n/a	n/a	n/a	n/a	n/a
3963.044	n/a	FFR_REC_WORD	1981522	wordpools/wasnorm_wordpool.txt	LTP089	ltpFR	9	n/a	n/a	PAPER	1011	n/a	n/a	n/a	0	0	0	n/a	n/a	n/a	n/a	n/a
4045.116	n/a	FFR_REC_WORD_VV	2022558	wordpools/wasnorm_wordpool.txt	LTP089	ltpFR	9	n/a	n/a	<>	-1	n/a	n/a	n/a	0	0	0	n/a	n/a	n/a	n/a	n/a
4046.116	n/a	FFR_REC_WORD_VV	2023058	wordpools/wasnorm_wordpool.txt	LTP089	ltpFR	9	n/a	n/a	<>	-1	n/a	n/a	n/a	0	0	0	n/a	n/a	n/a	n/a	n/a
4047.116	n/a	FFR_REC_WORD_VV	2023558	wordpools/wasnorm_wordpool.txt	LTP089	ltpFR	9	n/a	n/a	<>	-1	n/a	n/a	n/a	0	0	0	n/a	n/a	n/a	n/a	n/a
4048.116	n/a	FFR_REC_WORD_VV	2024058	wordpools/wasnorm_wordpool.txt	LTP089	ltpFR	9	n/a	n/a	<>	-1	n/a	n/a	n/a	0	0	0	n/a	n/a	n/a	n/a	n/a
4049.118	n/a	FFR_REC_WORD_VV	2024559	wordpools/wasnorm_wordpool.txt	LTP089	ltpFR	9	n/a	n/a	<>	-1	n/a	n/a	n/a	0	0	0	n/a	n/a	n/a	n/a	n/a
4050.118	n/a	FFR_REC_WORD_VV	2025059	wordpools/wasnorm_wordpool.txt	LTP089	ltpFR	9	n/a	n/a	<>	-1	n/a	n/a	n/a	0	0	0	n/a	n/a	n/a	n/a	n/a
4051.118	n/a	FFR_REC_WORD_VV	2025559	wordpools/wasnorm_wordpool.txt	LTP089	ltpFR	9	n/a	n/a	<>	-1	n/a	n/a	n/a	0	0	0	n/a	n/a	n/a	n/a	n/a
4052.118	n/a	FFR_REC_WORD_VV	2026059	wordpools/wasnorm_wordpool.txt	LTP089	ltpFR	9	n/a	n/a	<>	-1	n/a	n/a	n/a	0	0	0	n/a	n/a	n/a	n/a	n/a
4053.118	n/a	FFR_REC_WORD_VV	2026559	wordpools/wasnorm_wordpool.txt	LTP089	ltpFR	9	n/a	n/a	<>	-1	n/a	n/a	n/a	0	0	0	n/a	n/a	n/a	n/a	n/a
4054.118	n/a	FFR_REC_WORD_VV	2027059	wordpools/wasnorm_wordpool.txt	LTP089	ltpFR	9	n/a	n/a	<>	-1	n/a	n/a	n/a	0	0	0	n/a	n/a	n/a	n/a	n/a
4055.118	n/a	FFR_REC_WORD_VV	2027559	wordpools/wasnorm_wordpool.txt	LTP089	ltpFR	9	n/a	n/a	<>	-1	n/a	n/a	n/a	0	0	0	n/a	n/a	n/a	n/a	n/a
4136.594	n/a	REC_START	2068297	n/a	LTP089	ltpFR	9	1	n/a	n/a	n/a	n/a	n/a	n/a	0	0	0	n/a	n/a	n/a	n/a	n/a
4136.634	n/a	RECOG_TARGET	2068317	n/a	LTP089	ltpFR	9	1	1	LITERATURE	831	5	0	n/a	0	0	0	n/a	n/a	n/a	n/a	n/a
4141.368	n/a	RECOG_RESP	2070684	n/a	LTP089	ltpFR	9	1	1	LITERATURE	831	n/a	0	n/a	0	0	0	n/a	n/a	n/a	n/a	n/a
4142.226	n/a	RECOG_CONF	2071113	n/a	LTP089	ltpFR	9	1	1	LITERATURE	831	5	0	n/a	0	0	0	n/a	n/a	n/a	n/a	n/a
4143.676	n/a	RECOG_LURE	2071838	n/a	LTP089	ltpFR	9	1	n/a	SIBLING	1301	5	n/a	n/a	0	0	0	n/a	n/a	n/a	n/a	n/a
4144.512	n/a	RECOG_RESP	2072256	n/a	LTP089	ltpFR	9	1	n/a	SIBLING	1301	n/a	n/a	n/a	0	0	0	n/a	n/a	n/a	n/a	n/a
4145.06	n/a	RECOG_CONF	2072530	n/a	LTP089	ltpFR	9	1	n/a	SIBLING	1301	5	n/a	n/a	0	0	0	n/a	n/a	n/a	n/a	n/a
4146.384	n/a	RECOG_LURE	2073192	n/a	LTP089	ltpFR	9	1	n/a	BODY	145	2	n/a	n/a	0	0	0	n/a	n/a	n/a	n/a	n/a
4147.774	n/a	RECOG_RESP	2073887	n/a	LTP089	ltpFR	9	1	n/a	BODY	145	n/a	n/a	n/a	0	0	0	n/a	n/a	n/a	n/a	n/a
4148.414	n/a	RECOG_CONF	2074207	n/a	LTP089	ltpFR	9	1	n/a	BODY	145	2	n/a	n/a	0	0	0	n/a	n/a	n/a	n/a	n/a
4149.71	n/a	RECOG_LURE	2074855	n/a	LTP089	ltpFR	9	1	n/a	MECHANIC	884	1	n/a	n/a	0	0	0	n/a	n/a	n/a	n/a	n/a
4150.648	n/a	RECOG_RESP	2075324	n/a	LTP089	ltpFR	9	1	n/a	MECHANIC	884	n/a	n/a	n/a	0	0	0	n/a	n/a	n/a	n/a	n/a
4151.248	n/a	RECOG_CONF	2075624	n/a	LTP089	ltpFR	9	1	n/a	MECHANIC	884	1	n/a	n/a	0	0	0	n/a	n/a	n/a	n/a	n/a
4152.442	n/a	RECOG_LURE	2076221	n/a	LTP089	ltpFR	9	1	n/a	SCOUT	1252	1	n/a	n/a	0	0	0	n/a	n/a	n/a	n/a	n/a
4153.308	n/a	RECOG_RESP	2076654	n/a	LTP089	ltpFR	9	1	n/a	SCOUT	1252	n/a	n/a	n/a	0	0	0	n/a	n/a	n/a	n/a	n/a
4153.718	n/a	RECOG_CONF	2076859	n/a	LTP089	ltpFR	9	1	n/a	SCOUT	1252	1	n/a	n/a	0	0	0	n/a	n/a	n/a	n/a	n/a
4155.042	n/a	RECOG_LURE	2077521	n/a	LTP089	ltpFR	9	1	n/a	RAKE	1164	2	n/a	n/a	0	0	0	n/a	n/a	n/a	n/a	n/a
4155.946	n/a	RECOG_RESP	2077973	n/a	LTP089	ltpFR	9	1	n/a	RAKE	1164	n/a	n/a	n/a	0	0	0	n/a	n/a	n/a	n/a	n/a
4156.456	n/a	RECOG_CONF	2078228	n/a	LTP089	ltpFR	9	1	n/a	RAKE	1164	2	n/a	n/a	0	0	0	n/a	n/a	n/a	n/a	n/a
4157.634	n/a	RECOG_LURE	2078817	n/a	LTP089	ltpFR	9	1	n/a	CUE	422	1	n/a	n/a	0	0	0	n/a	n/a	n/a	n/a	n/a
4158.566	n/a	RECOG_RESP	2079283	n/a	LTP089	ltpFR	9	1	n/a	CUE	422	n/a	n/a	n/a	0	0	0	n/a	n/a	n/a	n/a	n/a
4159.044	n/a	RECOG_CONF	2079522	n/a	LTP089	ltpFR	9	1	n/a	CUE	422	1	n/a	n/a	0	0	0	n/a	n/a	n/a	n/a	n/a
4160.274	n/a	RECOG_TARGET	2080137	n/a	LTP089	ltpFR	9	1	0	GARBAGE	622	5	1	n/a	0	0	0	n/a	n/a	n/a	n/a	n/a
4161.23	n/a	RECOG_RESP	2080615	n/a	LTP089	ltpFR	9	1	0	GARBAGE	622	n/a	1	n/a	0	0	0	n/a	n/a	n/a	n/a	n/a
4161.704	n/a	RECOG_CONF	2080852	n/a	LTP089	ltpFR	9	1	0	GARBAGE	622	5	1	n/a	0	0	0	n/a	n/a	n/a	n/a	n/a
4162.9	n/a	RECOG_TARGET	2081450	n/a	LTP089	ltpFR	9	1	1	ROOMMATE	1207	5	0	n/a	0	0	0	n/a	n/a	n/a	n/a	n/a
4164.486	n/a	RECOG_RESP	2082243	n/a	LTP089	ltpFR	9	1	1	ROOMMATE	1207	n/a	0	n/a	0	0	0	n/a	n/a	n/a	n/a	n/a
4164.962	n/a	RECOG_CONF	2082481	n/a	LTP089	ltpFR	9	1	1	ROOMMATE	1207	5	0	n/a	0	0	0	n/a	n/a	n/a	n/a	n/a
4166.334	n/a	RECOG_TARGET	2083167	n/a	LTP089	ltpFR	9	1	1	BLUEPRINT	142	5	0	n/a	0	0	0	n/a	n/a	n/a	n/a	n/a
4167.6	n/a	RECOG_RESP	2083800	n/a	LTP089	ltpFR	9	1	1	BLUEPRINT	142	n/a	0	n/a	0	0	0	n/a	n/a	n/a	n/a	n/a
4168.042	n/a	RECOG_CONF	2084021	n/a	LTP089	ltpFR	9	1	1	BLUEPRINT	142	5	0	n/a	0	0	0	n/a	n/a	n/a	n/a	n/a
4169.274	n/a	RECOG_TARGET	2084637	n/a	LTP089	ltpFR	9	1	1	SHUTTER	1300	5	0	n/a	0	0	0	n/a	n/a	n/a	n/a	n/a
4169.936	n/a	RECOG_RESP	2084968	n/a	LTP089	ltpFR	9	1	1	SHUTTER	1300	n/a	0	n/a	0	0	0	n/a	n/a	n/a	n/a	n/a
4170.41	n/a	RECOG_CONF	2085205	n/a	LTP089	ltpFR	9	1	1	SHUTTER	1300	5	0	n/a	0	0	0	n/a	n/a	n/a	n/a	n/a
4171.618	n/a	RECOG_TARGET	2085809	n/a	LTP089	ltpFR	9	1	0	COWBOY	395	5	0	n/a	0	0	0	n/a	n/a	n/a	n/a	n/a
4172.34	n/a	RECOG_RESP	2086170	n/a	LTP089	ltpFR	9	1	0	COWBOY	395	n/a	0	n/a	0	0	0	n/a	n/a	n/a	n/a	n/a
4172.792	n/a	RECOG_CONF	2086396	n/a	LTP089	ltpFR	9	1	0	COWBOY	395	5	0	n/a	0	0	0	n/a	n/a	n/a	n/a	n/a
4173.95	n/a	RECOG_TARGET	2086975	n/a	LTP089	ltpFR	9	1	1	COLLEGE	346	5	0	n/a	0	0	0	n/a	n/a	n/a	n/a	n/a
4174.506	n/a	RECOG_RESP	2087253	n/a	LTP089	ltpFR	9	1	1	COLLEGE	346	n/a	0	n/a	0	0	0	n/a	n/a	n/a	n/a	n/a
4174.886	n/a	RECOG_CONF	2087443	n/a	LTP089	ltpFR	9	1	1	COLLEGE	346	5	0	n/a	0	0	0	n/a	n/a	n/a	n/a	n/a
4176.118	n/a	RECOG_LURE	2088059	n/a	LTP089	ltpFR	9	1	n/a	BATH	98	5	n/a	n/a	0	0	0	n/a	n/a	n/a	n/a	n/a
4176.58	n/a	RECOG_RESP	2088290	n/a	LTP089	ltpFR	9	1	n/a	BATH	98	n/a	n/a	n/a	0	0	0	n/a	n/a	n/a	n/a	n/a
4177.006	n/a	RECOG_CONF	2088503	n/a	LTP089	ltpFR	9	1	n/a	BATH	98	5	n/a	n/a	0	0	0	n/a	n/a	n/a	n/a	n/a
4178.1	n/a	RECOG_TARGET	2089050	n/a	LTP089	ltpFR	9	1	0	STEM	1376	5	1	n/a	0	0	0	n/a	n/a	n/a	n/a	n/a
4178.916	n/a	RECOG_RESP	2089458	n/a	LTP089	ltpFR	9	1	0	STEM	1376	n/a	1	n/a	0	0	0	n/a	n/a	n/a	n/a	n/a
4179.296	n/a	RECOG_CONF	2089648	n/a	LTP089	ltpFR	9	1	0	STEM	1376	5	1	n/a	0	0	0	n/a	n/a	n/a	n/a	n/a
4180.642	n/a	RECOG_LURE	2090321	n/a	LTP089	ltpFR	9	1	n/a	SKATE	1313	1	n/a	n/a	0	0	0	n/a	n/a	n/a	n/a	n/a
4182.288	n/a	RECOG_RESP	2091144	n/a	LTP089	ltpFR	9	1	n/a	SKATE	1313	n/a	n/a	n/a	0	0	0	n/a	n/a	n/a	n/a	n/a
4182.67	n/a	RECOG_CONF	2091335	n/a	LTP089	ltpFR	9	1	n/a	SKATE	1313	1	n/a	n/a	0	0	0	n/a	n/a	n/a	n/a	n/a
4183.942	n/a	RECOG_LURE	2091971	n/a	LTP089	ltpFR	9	1	n/a	COLLAR	345	5	n/a	n/a	0	0	0	n/a	n/a	n/a	n/a	n/a
4185.002	n/a	RECOG_RESP	2092501	n/a	LTP089	ltpFR	9	1	n/a	COLLAR	345	n/a	n/a	n/a	0	0	0	n/a	n/a	n/a	n/a	n/a
4185.62	n/a	RECOG_CONF	2092810	n/a	LTP089	ltpFR	9	1	n/a	COLLAR	345	5	n/a	n/a	0	0	0	n/a	n/a	n/a	n/a	n/a
4186.908	n/a	RECOG_TARGET	2093454	n/a	LTP089	ltpFR	9	1	1	DEER	444	5	0	n/a	0	0	0	n/a	n/a	n/a	n/a	n/a
4190.858	n/a	RECOG_RESP	2095429	n/a	LTP089	ltpFR	9	1	1	DEER	444	n/a	0	n/a	0	0	0	n/a	n/a	n/a	n/a	n/a
4191.194	n/a	RECOG_CONF	2095597	n/a	LTP089	ltpFR	9	1	1	DEER	444	5	0	n/a	0	0	0	n/a	n/a	n/a	n/a	n/a
4192.666	n/a	RECOG_LURE	2096333	n/a	LTP089	ltpFR	9	1	n/a	PUZZLE	1146	5	n/a	n/a	0	0	0	n/a	n/a	n/a	n/a	n/a
4193.424	n/a	RECOG_RESP	2096712	n/a	LTP089	ltpFR	9	1	n/a	PUZZLE	1146	n/a	n/a	n/a	0	0	0	n/a	n/a	n/a	n/a	n/a
4193.806	n/a	RECOG_CONF	2096903	n/a	LTP089	ltpFR	9	1	n/a	PUZZLE	1146	5	n/a	n/a	0	0	0	n/a	n/a	n/a	n/a	n/a
4195.15	n/a	RECOG_LURE	2097575	n/a	LTP089	ltpFR	9	1	n/a	PERISCOPE	1050	1	n/a	n/a	0	0	0	n/a	n/a	n/a	n/a	n/a
4196.86	n/a	RECOG_RESP	2098430	n/a	LTP089	ltpFR	9	1	n/a	PERISCOPE	1050	n/a	n/a	n/a	0	0	0	n/a	n/a	n/a	n/a	n/a
4197.278	n/a	RECOG_CONF	2098639	n/a	LTP089	ltpFR	9	1	n/a	PERISCOPE	1050	1	n/a	n/a	0	0	0	n/a	n/a	n/a	n/a	n/a
4200.044	n/a	REC_START	2100022	n/a	LTP089	ltpFR	9	2	n/a	n/a	n/a	n/a	n/a	n/a	0	0	0	n/a	n/a	n/a	n/a	n/a
4200.074	n/a	RECOG_TARGET	2100037	n/a	LTP089	ltpFR	9	2	1	ZOO	1637	5	0	n/a	0	0	0	n/a	n/a	n/a	n/a	n/a
4200.866	n/a	RECOG_RESP	2100433	n/a	LTP089	ltpFR	9	2	1	ZOO	1637	n/a	0	n/a	0	0	0	n/a	n/a	n/a	n/a	n/a
4201.302	n/a	RECOG_CONF	2100651	n/a	LTP089	ltpFR	9	2	1	ZOO	1637	5	0	n/a	0	0	0	n/a	n/a	n/a	n/a	n/a
4202.6	n/a	RECOG_LURE	2101300	n/a	LTP089	ltpFR	9	2	n/a	ALBUM	14	5	n/a	n/a	0	0	0	n/a	n/a	n/a	n/a	n/a
4203.402	n/a	RECOG_RESP	2101701	n/a	LTP089	ltpFR	9	2	n/a	ALBUM	14	n/a	n/a	n/a	0	0	0	n/a	n/a	n/a	n/a	n/a
4203.76	n/a	RECOG_CONF	2101880	n/a	LTP089	ltpFR	9	2	n/a	ALBUM	14	5	n/a	n/a	0	0	0	n/a	n/a	n/a	n/a	n/a
4205.092	n/a	RECOG_TARGET	2102546	n/a	LTP089	ltpFR	9	2	0	CRAB	397	5	0	n/a	0	0	0	n/a	n/a	n/a	n/a	n/a
4205.816	n/a	RECOG_RESP	2102908	n/a	LTP089	ltpFR	9	2	0	CRAB	397	n/a	0	n/a	0	0	0	n/a	n/a	n/a	n/a	n/a
4206.244	n/a	RECOG_CONF	2103122	n/a	LTP089	ltpFR	9	2	0	CRAB	397	5	0	n/a	0	0	0	n/a	n/a	n/a	n/a	n/a
4207.474	n/a	RECOG_TARGET	2103737	n/a	LTP089	ltpFR	9	2	0	DIRECTOR	471	5	1	n/a	0	0	0	n/a	n/a	n/a	n/a	n/a
4208.516	n/a	RECOG_RESP	2104258	n/a	LTP089	ltpFR	9	2	0	DIRECTOR	471	n/a	1	n/a	0	0	0	n/a	n/a	n/a	n/a	n/a
4208.878	n/a	RECOG_CONF	2104439	n/a	LTP089	ltpFR	9	2	0	DIRECTOR	471	5	1	n/a	0	0	0	n/a	n/a	n/a	n/a	n/a
4210.166	n/a	RECOG_LURE	2105083	n/a	LTP089	ltpFR	9	2	n/a	KETTLE	772	5	n/a	n/a	0	0	0	n/a	n/a	n/a	n/a	n/a
4210.784	n/a	RECOG_RESP	2105392	n/a	LTP089	ltpFR	9	2	n/a	KETTLE	772	n/a	n/a	n/a	0	0	0	n/a	n/a	n/a	n/a	n/a
4211.258	n/a	RECOG_CONF	2105629	n/a	LTP089	ltpFR	9	2	n/a	KETTLE	772	5	n/a	n/a	0	0	0	n/a	n/a	n/a	n/a	n/a
4212.306	n/a	RECOG_TARGET	2106153	n/a	LTP089	ltpFR	9	2	1	COLESLAW	344	5	0	n/a	0	0	0	n/a	n/a	n/a	n/a	n/a
4212.92	n/a	RECOG_RESP	2106460	n/a	LTP089	ltpFR	9	2	1	COLESLAW	344	n/a	0	n/a	0	0	0	n/a	n/a	n/a	n/a	n/a
