mstime	trial_type	stim_file	subject	experiment	session	trial	task	item_name	item_num	recog_conf	resp	color_b	color_g	color_r	case	font
0	SESS_START	n/a	LTP141	ltpFR	6	n/a	n/a	n/a	n/a	4	n/a	n/a	n/a	n/a	n/a	n/a
69986	WORD	wordpools/wasnorm_wordpool.txt	LTP141	ltpFR	6	1	1	MONKEY	911	n/a	1	1	0.412841796875	0.57763671875	upper	../fonts/amplitud.ttf
74173	WORD	wordpools/wasnorm_wordpool.txt	LTP141	ltpFR	6	1	1	MOVIE	927	n/a	0	1	0.412841796875	0.57763671875	upper	../fonts/amplitud.ttf
78235	WORD	wordpools/wasnorm_wordpool.txt	LTP141	ltpFR	6	1	1	PEARL	1034	n/a	0	1	0.412841796875	0.57763671875	upper	../fonts/amplitud.ttf
82097	WORD	wordpools/wasnorm_wordpool.txt	LTP141	ltpFR	6	1	1	SNORKEL	1336	n/a	0	1	0.412841796875	0.57763671875	upper	../fonts/amplitud.ttf
86293	WORD	wordpools/wasnorm_wordpool.txt	LTP141	ltpFR	6	1	0	WATERFALL	1595	n/a	1	0	0.5869140625	0.422607421875	lower	../fonts/zerothre.ttf
90163	WORD	wordpools/wasnorm_wordpool.txt	LTP141	ltpFR	6	1	0	TREAD	1499	n/a	0	0	0.5869140625	0.422607421875	lower	../fonts/zerothre.ttf
93999	WORD	wordpools/wasnorm_wordpool.txt	LTP141	ltpFR	6	1	0	HOE	711	n/a	0	0	0.5869140625	0.422607421875	lower	../fonts/zerothre.ttf
97828	WORD	wordpools/wasnorm_wordpool.txt	LTP141	ltpFR	6	1	0	PHILOSOPHER	1054	n/a	1	0	0.5869140625	0.422607421875	lower	../fonts/zerothre.ttf
101807	WORD	wordpools/wasnorm_wordpool.txt	LTP141	ltpFR	6	1	0	HEAD	695	n/a	1	0	0.5869140625	0.422607421875	lower	../fonts/zerothre.ttf
105819	WORD	wordpools/wasnorm_wordpool.txt	LTP141	ltpFR	6	1	0	TURKEY	1520	n/a	1	0	0.5869140625	0.422607421875	lower	../fonts/zerothre.ttf
109806	WORD	wordpools/wasnorm_wordpool.txt	LTP141	ltpFR	6	1	1	SAUSAGE	1238	n/a	0	1	0.412841796875	0.57763671875	upper	../fonts/amplitud.ttf
113685	WORD	wordpools/wasnorm_wordpool.txt	LTP141	ltpFR	6	1	1	PRIMATE	1123	n/a	1	1	0.412841796875	0.57763671875	upper	../fonts/amplitud.ttf
117855	WORD	wordpools/wasnorm_wordpool.txt	LTP141	ltpFR	6	1	1	BARN	89	n/a	0	1	0.412841796875	0.57763671875	upper	../fonts/amplitud.ttf
121817	WORD	wordpools/wasnorm_wordpool.txt	LTP141	ltpFR	6	1	1	POWDER	1117	n/a	0	1	0.412841796875	0.57763671875	upper	../fonts/amplitud.ttf
125729	WORD	wordpools/wasnorm_wordpool.txt	LTP141	ltpFR	6	1	0	WRIST	1626	n/a	0	0	0.5869140625	0.422607421875	lower	../fonts/zerothre.ttf
129600	WORD	wordpools/wasnorm_wordpool.txt	LTP141	ltpFR	6	1	0	UNICORN	1538	n/a	1	0	0.5869140625	0.422607421875	lower	../fonts/zerothre.ttf
135544	REC_START	n/a	LTP141	ltpFR	6	1	n/a	n/a	n/a	n/a	n/a	n/a	n/a	n/a	n/a	n/a
136771	REC_WORD	wordpools/wasnorm_wordpool.txt	LTP141	ltpFR	6	1	0	WRIST	1626	n/a	0	n/a	n/a	n/a	n/a	n/a
138028	REC_WORD	wordpools/wasnorm_wordpool.txt	LTP141	ltpFR	6	1	0	UNICORN	1538	n/a	1	n/a	n/a	n/a	n/a	n/a
139744	REC_WORD	wordpools/wasnorm_wordpool.txt	LTP141	ltpFR	6	1	1	POWDER	1117	n/a	0	n/a	n/a	n/a	n/a	n/a
141675	REC_WORD	wordpools/wasnorm_wordpool.txt	LTP141	ltpFR	6	1	0	WATERFALL	1595	n/a	1	n/a	n/a	n/a	n/a	n/a
143221	REC_WORD	wordpools/wasnorm_wordpool.txt	LTP141	ltpFR	6	1	1	MONKEY	911	n/a	1	n/a	n/a	n/a	n/a	n/a
144703	REC_WORD	wordpools/wasnorm_wordpool.txt	LTP141	ltpFR	6	1	1	PRIMATE	1123	n/a	1	n/a	n/a	n/a	n/a	n/a
148714	REC_WORD	wordpools/wasnorm_wordpool.txt	LTP141	ltpFR	6	1	0	HEAD	695	n/a	1	n/a	n/a	n/a	n/a	n/a
158596	REC_WORD	wordpools/wasnorm_wordpool.txt	LTP141	ltpFR	6	1	0	PHILOSOPHER	1054	n/a	1	n/a	n/a	n/a	n/a	n/a
162408	REC_WORD	wordpools/wasnorm_wordpool.txt	LTP141	ltpFR	6	1	0	HOE	711	n/a	0	n/a	n/a	n/a	n/a	n/a
184383	REC_WORD	wordpools/wasnorm_wordpool.txt	LTP141	ltpFR	6	1	1	PEARL	1034	n/a	0	n/a	n/a	n/a	n/a	n/a
219720	WORD	wordpools/wasnorm_wordpool.txt	LTP141	ltpFR	6	2	0	COURT	391	n/a	1	0	0.5869140625	0.422607421875	lower	../fonts/zerothre.ttf
223791	WORD	wordpools/wasnorm_wordpool.txt	LTP141	ltpFR	6	2	0	CLAY	320	n/a	0	0	0.5869140625	0.422607421875	lower	../fonts/zerothre.ttf
227695	WORD	wordpools/wasnorm_wordpool.txt	LTP141	ltpFR	6	2	1	CAT	257	n/a	1	1	0.412841796875	0.57763671875	upper	../fonts/amplitud.ttf
231748	WORD	wordpools/wasnorm_wordpool.txt	LTP141	ltpFR	6	2	1	FUR	615	n/a	0	1	0.412841796875	0.57763671875	upper	../fonts/amplitud.ttf
235918	WORD	wordpools/wasnorm_wordpool.txt	LTP141	ltpFR	6	2	1	SURF	1412	n/a	0	1	0.412841796875	0.57763671875	upper	../fonts/amplitud.ttf
240089	WORD	wordpools/wasnorm_wordpool.txt	LTP141	ltpFR	6	2	1	COYOTE	396	n/a	1	1	0.412841796875	0.57763671875	upper	../fonts/amplitud.ttf
243909	WORD	wordpools/wasnorm_wordpool.txt	LTP141	ltpFR	6	2	0	BOWL	158	n/a	1	0	0.5869140625	0.422607421875	lower	../fonts/zerothre.ttf
247938	WORD	wordpools/wasnorm_wordpool.txt	LTP141	ltpFR	6	2	0	BEAST	108	n/a	1	0	0.5869140625	0.422607421875	lower	../fonts/zerothre.ttf
252134	WORD	wordpools/wasnorm_wordpool.txt	LTP141	ltpFR	6	2	1	PITCHFORK	1078	n/a	0	1	0.412841796875	0.57763671875	upper	../fonts/amplitud.ttf
256221	WORD	wordpools/wasnorm_wordpool.txt	LTP141	ltpFR	6	2	1	ABDOMEN	1	n/a	1	1	0.412841796875	0.57763671875	upper	../fonts/amplitud.ttf
260283	WORD	wordpools/wasnorm_wordpool.txt	LTP141	ltpFR	6	2	1	INTESTINE	742	n/a	0	1	0.412841796875	0.57763671875	upper	../fonts/amplitud.ttf
264461	WORD	wordpools/wasnorm_wordpool.txt	LTP141	ltpFR	6	2	1	SPIT	1354	n/a	0	1	0.412841796875	0.57763671875	upper	../fonts/amplitud.ttf
268614	WORD	wordpools/wasnorm_wordpool.txt	LTP141	ltpFR	6	2	0	JAW	751	n/a	0	0	0.5869140625	0.422607421875	lower	../fonts/zerothre.ttf
272684	WORD	wordpools/wasnorm_wordpool.txt	LTP141	ltpFR	6	2	0	HAWK	692	n/a	1	0	0.5869140625	0.422607421875	lower	../fonts/zerothre.ttf
276530	WORD	wordpools/wasnorm_wordpool.txt	LTP141	ltpFR	6	2	0	JUG	762	n/a	1	0	0.5869140625	0.422607421875	lower	../fonts/zerothre.ttf
280360	WORD	wordpools/wasnorm_wordpool.txt	LTP141	ltpFR	6	2	0	KIWI	781	n/a	0	0	0.5869140625	0.422607421875	lower	../fonts/zerothre.ttf
286311	REC_START	n/a	LTP141	ltpFR	6	2	n/a	n/a	n/a	n/a	n/a	n/a	n/a	n/a	n/a	n/a
288431	REC_WORD	wordpools/wasnorm_wordpool.txt	LTP141	ltpFR	6	2	0	KIWI	781	n/a	0	n/a	n/a	n/a	n/a	n/a
289898	REC_WORD	wordpools/wasnorm_wordpool.txt	LTP141	ltpFR	6	2	0	JUG	762	n/a	1	n/a	n/a	n/a	n/a	n/a
295724	REC_WORD	wordpools/wasnorm_wordpool.txt	LTP141	ltpFR	6	2	0	WRIST	1626	n/a	0	n/a	n/a	n/a	n/a	n/a
297330	REC_WORD	wordpools/wasnorm_wordpool.txt	LTP141	ltpFR	6	2	1	INTESTINE	742	n/a	0	n/a	n/a	n/a	n/a	n/a
299561	REC_WORD	wordpools/wasnorm_wordpool.txt	LTP141	ltpFR	6	2	1	ABDOMEN	1	n/a	1	n/a	n/a	n/a	n/a	n/a
310769	REC_WORD	wordpools/wasnorm_wordpool.txt	LTP141	ltpFR	6	2	1	PITCHFORK	1078	n/a	0	n/a	n/a	n/a	n/a	n/a
328615	REC_WORD	wordpools/wasnorm_wordpool.txt	LTP141	ltpFR	6	2	1	SPIT	1354	n/a	0	n/a	n/a	n/a	n/a	n/a
336906	REC_WORD	wordpools/wasnorm_wordpool.txt	LTP141	ltpFR	6	2	1	CAT	257	n/a	1	n/a	n/a	n/a	n/a	n/a
338626	REC_WORD	wordpools/wasnorm_wordpool.txt	LTP141	ltpFR	6	2	1	FUR	615	n/a	0	n/a	n/a	n/a	n/a	n/a
367816	WORD	wordpools/wasnorm_wordpool.txt	LTP141	ltpFR	6	3	0	LEOPARD	812	n/a	1	0	0.5869140625	0.422607421875	lower	../fonts/zerothre.ttf
371994	WORD	wordpools/wasnorm_wordpool.txt	LTP141	ltpFR	6	3	0	RACCOON	1153	n/a	1	0	0.5869140625	0.422607421875	lower	../fonts/zerothre.ttf
375806	WORD	wordpools/wasnorm_wordpool.txt	LTP141	ltpFR	6	3	1	OCEAN	970	n/a	0	1	0.412841796875	0.57763671875	upper	../fonts/amplitud.ttf
380010	WORD	wordpools/wasnorm_wordpool.txt	LTP141	ltpFR	6	3	1	TROUT	1511	n/a	1	1	0.412841796875	0.57763671875	upper	../fonts/amplitud.ttf
384139	WORD	wordpools/wasnorm_wordpool.txt	LTP141	ltpFR	6	3	1	FEATHER	557	n/a	0	1	0.412841796875	0.57763671875	upper	../fonts/amplitud.ttf
388034	WORD	wordpools/wasnorm_wordpool.txt	LTP141	ltpFR	6	3	1	COUNTY	389	n/a	1	1	0.412841796875	0.57763671875	upper	../fonts/amplitud.ttf
391954	WORD	wordpools/wasnorm_wordpool.txt	LTP141	ltpFR	6	3	1	WOMAN	1620	n/a	1	1	0.412841796875	0.57763671875	upper	../fonts/amplitud.ttf
395800	WORD	wordpools/wasnorm_wordpool.txt	LTP141	ltpFR	6	3	0	NEST	945	n/a	0	0	0.5869140625	0.422607421875	lower	../fonts/zerothre.ttf
399670	WORD	wordpools/wasnorm_wordpool.txt	LTP141	ltpFR	6	3	0	THIMBLE	1458	n/a	0	0	0.5869140625	0.422607421875	lower	../fonts/zerothre.ttf
403557	WORD	wordpools/wasnorm_wordpool.txt	LTP141	ltpFR	6	3	0	STALLION	1369	n/a	1	0	0.5869140625	0.422607421875	lower	../fonts/zerothre.ttf
407487	WORD	wordpools/wasnorm_wordpool.txt	LTP141	ltpFR	6	3	0	FRAME	600	n/a	0	0	0.5869140625	0.422607421875	lower	../fonts/zerothre.ttf
411333	WORD	wordpools/wasnorm_wordpool.txt	LTP141	ltpFR	6	3	0	GRAVE	658	n/a	1	0	0.5869140625	0.422607421875	lower	../fonts/zerothre.ttf
415195	WORD	wordpools/wasnorm_wordpool.txt	LTP141	ltpFR	6	3	0	TOMB	1477	n/a	1	0	0.5869140625	0.422607421875	lower	../fonts/zerothre.ttf
419174	WORD	wordpools/wasnorm_wordpool.txt	LTP141	ltpFR	6	3	1	CHART	282	n/a	0	1	0.412841796875	0.57763671875	upper	../fonts/amplitud.ttf
423377	WORD	wordpools/wasnorm_wordpool.txt	LTP141	ltpFR	6	3	1	TWINE	1529	n/a	0	1	0.412841796875	0.57763671875	upper	../fonts/amplitud.ttf
427364	WORD	wordpools/wasnorm_wordpool.txt	LTP141	ltpFR	6	3	1	CLARINET	317	n/a	0	1	0.412841796875	0.57763671875	upper	../fonts/amplitud.ttf
433133	REC_START	n/a	LTP141	ltpFR	6	3	n/a	n/a	n/a	n/a	n/a	n/a	n/a	n/a	n/a	n/a
433886	REC_WORD	wordpools/wasnorm_wordpool.txt	LTP141	ltpFR	6	3	1	CLARINET	317	n/a	0	n/a	n/a	n/a	n/a	n/a
435647	REC_WORD	wordpools/wasnorm_wordpool.txt	LTP141	ltpFR	6	3	1	TWINE	1529	n/a	0	n/a	n/a	n/a	n/a	n/a
437288	REC_WORD	wordpools/wasnorm_wordpool.txt	LTP141	ltpFR	6	3	1	CHART	282	n/a	0	n/a	n/a	n/a	n/a	n/a
438994	REC_WORD	wordpools/wasnorm_wordpool.txt	LTP141	ltpFR	6	3	0	NEST	945	n/a	0	n/a	n/a	n/a	n/a	n/a
440690	REC_WORD	wordpools/wasnorm_wordpool.txt	LTP141	ltpFR	6	3	0	THIMBLE	1458	n/a	0	n/a	n/a	n/a	n/a	n/a
443174	REC_WORD	wordpools/wasnorm_wordpool.txt	LTP141	ltpFR	6	3	0	STALLION	1369	n/a	1	n/a	n/a	n/a	n/a	n/a
445041	REC_WORD	wordpools/wasnorm_wordpool.txt	LTP141	ltpFR	6	3	1	OCEAN	970	n/a	0	n/a	n/a	n/a	n/a	n/a
452090	REC_WORD	wordpools/wasnorm_wordpool.txt	LTP141	ltpFR	6	3	0	TOMB	1477	n/a	1	n/a	n/a	n/a	n/a	n/a
453561	REC_WORD	wordpools/wasnorm_wordpool.txt	LTP141	ltpFR	6	3	0	GRAVE	658	n/a	1	n/a	n/a	n/a	n/a	n/a
456839	REC_WORD	wordpools/wasnorm_wordpool.txt	LTP141	ltpFR	6	3	1	WOMAN	1620	n/a	1	n/a	n/a	n/a	n/a	n/a
463524	REC_WORD	wordpools/wasnorm_wordpool.txt	LTP141	ltpFR	6	3	0	LEOPARD	812	n/a	1	n/a	n/a	n/a	n/a	n/a
520847	WORD	wordpools/wasnorm_wordpool.txt	LTP141	ltpFR	6	4	1	MINER	896	n/a	1	1	0.412841796875	0.57763671875	upper	../fonts/amplitud.ttf
524942	WORD	wordpools/wasnorm_wordpool.txt	LTP141	ltpFR	6	4	1	DIGGER	464	n/a	1	1	0.412841796875	0.57763671875	upper	../fonts/amplitud.ttf
528837	WORD	wordpools/wasnorm_wordpool.txt	LTP141	ltpFR	6	4	1	CHEF	290	n/a	1	1	0.412841796875	0.57763671875	upper	../fonts/amplitud.ttf
532908	WORD	wordpools/wasnorm_wordpool.txt	LTP141	ltpFR	6	4	1	MICROWAVE	892	n/a	0	1	0.412841796875	0.57763671875	upper	../fonts/amplitud.ttf
536911	WORD	wordpools/wasnorm_wordpool.txt	LTP141	ltpFR	6	4	1	LION	827	n/a	1	1	0.412841796875	0.57763671875	upper	../fonts/amplitud.ttf
540940	WORD	wordpools/wasnorm_wordpool.txt	LTP141	ltpFR	6	4	1	ERASER	538	n/a	0	1	0.412841796875	0.57763671875	upper	../fonts/amplitud.ttf
544844	WORD	wordpools/wasnorm_wordpool.txt	LTP141	ltpFR	6	4	1	FRIAR	605	n/a	1	1	0.412841796875	0.57763671875	upper	../fonts/amplitud.ttf
548972	WORD	wordpools/wasnorm_wordpool.txt	LTP141	ltpFR	6	4	1	TOOTHBRUSH	1482	n/a	0	1	0.412841796875	0.57763671875	upper	../fonts/amplitud.ttf
552984	WORD	wordpools/wasnorm_wordpool.txt	LTP141	ltpFR	6	4	1	SWEATER	1419	n/a	0	1	0.412841796875	0.57763671875	upper	../fonts/amplitud.ttf
557021	WORD	wordpools/wasnorm_wordpool.txt	LTP141	ltpFR	6	4	1	WAITER	1580	n/a	1	1	0.412841796875	0.57763671875	upper	../fonts/amplitud.ttf
560942	WORD	wordpools/wasnorm_wordpool.txt	LTP141	ltpFR	6	4	1	SPOOL	1356	n/a	0	1	0.412841796875	0.57763671875	upper	../fonts/amplitud.ttf
565004	WORD	wordpools/wasnorm_wordpool.txt	LTP141	ltpFR	6	4	1	CHURCH	307	n/a	0	1	0.412841796875	0.57763671875	upper	../fonts/amplitud.ttf
569208	WORD	wordpools/wasnorm_wordpool.txt	LTP141	ltpFR	6	4	1	SPONGE	1355	n/a	0	1	0.412841796875	0.57763671875	upper	../fonts/amplitud.ttf
573053	WORD	wordpools/wasnorm_wordpool.txt	LTP141	ltpFR	6	4	1	MARINE	869	n/a	1	1	0.412841796875	0.57763671875	upper	../fonts/amplitud.ttf
577116	WORD	wordpools/wasnorm_wordpool.txt	LTP141	ltpFR	6	4	1	COLESLAW	344	n/a	0	1	0.412841796875	0.57763671875	upper	../fonts/amplitud.ttf
580935	WORD	wordpools/wasnorm_wordpool.txt	LTP141	ltpFR	6	4	1	PLAID	1080	n/a	0	1	0.412841796875	0.57763671875	upper	../fonts/amplitud.ttf
586796	REC_START	n/a	LTP141	ltpFR	6	4	n/a	n/a	n/a	n/a	n/a	n/a	n/a	n/a	n/a	n/a
588098	REC_WORD	wordpools/wasnorm_wordpool.txt	LTP141	ltpFR	6	4	1	PLAID	1080	n/a	0	n/a	n/a	n/a	n/a	n/a
590133	REC_WORD	wordpools/wasnorm_wordpool.txt	LTP141	ltpFR	6	4	1	COLESLAW	344	n/a	0	n/a	n/a	n/a	n/a	n/a
592164	REC_WORD	wordpools/wasnorm_wordpool.txt	LTP141	ltpFR	6	4	1	MICROWAVE	892	n/a	0	n/a	n/a	n/a	n/a	n/a
594054	REC_WORD	wordpools/wasnorm_wordpool.txt	LTP141	ltpFR	6	4	1	SWEATER	1419	n/a	0	n/a	n/a	n/a	n/a	n/a
597102	REC_WORD	wordpools/wasnorm_wordpool.txt	LTP141	ltpFR	6	4	1	SPOOL	1356	n/a	0	n/a	n/a	n/a	n/a	n/a
603218	REC_WORD	wordpools/wasnorm_wordpool.txt	LTP141	ltpFR	6	4	1	CHURCH	307	n/a	0	n/a	n/a	n/a	n/a	n/a
604894	REC_WORD	wordpools/wasnorm_wordpool.txt	LTP141	ltpFR	6	4	1	PLAID	1080	n/a	0	n/a	n/a	n/a	n/a	n/a
606505	REC_WORD	wordpools/wasnorm_wordpool.txt	LTP141	ltpFR	6	4	1	SPONGE	1355	n/a	0	n/a	n/a	n/a	n/a	n/a
611819	REC_WORD	wordpools/wasnorm_wordpool.txt	LTP141	ltpFR	6	4	1	MINER	896	n/a	1	n/a	n/a	n/a	n/a	n/a
613510	REC_WORD	wordpools/wasnorm_wordpool.txt	LTP141	ltpFR	6	4	1	DIGGER	464	n/a	1	n/a	n/a	n/a	n/a	n/a
616563	REC_WORD	wordpools/wasnorm_wordpool.txt	LTP141	ltpFR	6	4	1	FRIAR	605	n/a	1	n/a	n/a	n/a	n/a	n/a
621657	REC_WORD	wordpools/wasnorm_wordpool.txt	LTP141	ltpFR	6	4	1	CHEF	290	n/a	1	n/a	n/a	n/a	n/a	n/a
667344	WORD	wordpools/wasnorm_wordpool.txt	LTP141	ltpFR	6	5	-1	LINT	826	n/a	-1	1	1.0	1.0	upper	../fonts/Verdana.ttf
671440	WORD	wordpools/wasnorm_wordpool.txt	LTP141	ltpFR	6	5	-1	PLUMBER	1091	n/a	-1	1	1.0	1.0	upper	../fonts/Verdana.ttf
675402	WORD	wordpools/wasnorm_wordpool.txt	LTP141	ltpFR	6	5	-1	CARAVAN	242	n/a	-1	1	1.0	1.0	upper	../fonts/Verdana.ttf
679306	WORD	wordpools/wasnorm_wordpool.txt	LTP141	ltpFR	6	5	-1	WINDSHIELD	1612	n/a	-1	1	1.0	1.0	upper	../fonts/Verdana.ttf
683135	WORD	wordpools/wasnorm_wordpool.txt	LTP141	ltpFR	6	5	-1	ARROW	40	n/a	-1	1	1.0	1.0	upper	../fonts/Verdana.ttf
687088	WORD	wordpools/wasnorm_wordpool.txt	LTP141	ltpFR	6	5	-1	SWIMMER	1420	n/a	-1	1	1.0	1.0	upper	../fonts/Verdana.ttf
690974	WORD	wordpools/wasnorm_wordpool.txt	LTP141	ltpFR	6	5	-1	BLENDER	136	n/a	-1	1	1.0	1.0	upper	../fonts/Verdana.ttf
695070	WORD	wordpools/wasnorm_wordpool.txt	LTP141	ltpFR	6	5	-1	FISH	571	n/a	-1	1	1.0	1.0	upper	../fonts/Verdana.ttf
698915	WORD	wordpools/wasnorm_wordpool.txt	LTP141	ltpFR	6	5	-1	UNDERWEAR	1537	n/a	-1	1	1.0	1.0	upper	../fonts/Verdana.ttf
703111	WORD	wordpools/wasnorm_wordpool.txt	LTP141	ltpFR	6	5	-1	FLASK	576	n/a	-1	1	1.0	1.0	upper	../fonts/Verdana.ttf
707039	WORD	wordpools/wasnorm_wordpool.txt	LTP141	ltpFR	6	5	-1	DIVER	476	n/a	-1	1	1.0	1.0	upper	../fonts/Verdana.ttf
711135	WORD	wordpools/wasnorm_wordpool.txt	LTP141	ltpFR	6	5	-1	TILE	1468	n/a	-1	1	1.0	1.0	upper	../fonts/Verdana.ttf
714980	WORD	wordpools/wasnorm_wordpool.txt	LTP141	ltpFR	6	5	-1	AMBULANCE	19	n/a	-1	1	1.0	1.0	upper	../fonts/Verdana.ttf
718809	WORD	wordpools/wasnorm_wordpool.txt	LTP141	ltpFR	6	5	-1	GROCERIES	663	n/a	-1	1	1.0	1.0	upper	../fonts/Verdana.ttf
722638	WORD	wordpools/wasnorm_wordpool.txt	LTP141	ltpFR	6	5	-1	CRAB	397	n/a	-1	1	1.0	1.0	upper	../fonts/Verdana.ttf
726493	WORD	wordpools/wasnorm_wordpool.txt	LTP141	ltpFR	6	5	-1	CEILING	265	n/a	-1	1	1.0	1.0	upper	../fonts/Verdana.ttf
732287	REC_START	n/a	LTP141	ltpFR	6	5	n/a	n/a	n/a	n/a	n/a	n/a	n/a	n/a	n/a	n/a
733269	REC_WORD	wordpools/wasnorm_wordpool.txt	LTP141	ltpFR	6	5	-1	CEILING	265	n/a	-1	n/a	n/a	n/a	n/a	n/a
734985	REC_WORD	wordpools/wasnorm_wordpool.txt	LTP141	ltpFR	6	5	-1	CRAB	397	n/a	-1	n/a	n/a	n/a	n/a	n/a
736572	REC_WORD	wordpools/wasnorm_wordpool.txt	LTP141	ltpFR	6	5	-1	GROCERIES	663	n/a	-1	n/a	n/a	n/a	n/a	n/a
738338	REC_WORD	wordpools/wasnorm_wordpool.txt	LTP141	ltpFR	6	5	-1	LINT	826	n/a	-1	n/a	n/a	n/a	n/a	n/a
739919	REC_WORD	wordpools/wasnorm_wordpool.txt	LTP141	ltpFR	6	5	-1	PLUMBER	1091	n/a	-1	n/a	n/a	n/a	n/a	n/a
743232	REC_WORD	wordpools/wasnorm_wordpool.txt	LTP141	ltpFR	6	5	-1	BLENDER	136	n/a	-1	n/a	n/a	n/a	n/a	n/a
753025	REC_WORD	wordpools/wasnorm_wordpool.txt	LTP141	ltpFR	6	5	-1	SWIMMER	1420	n/a	-1	n/a	n/a	n/a	n/a	n/a
775304	REC_WORD	wordpools/wasnorm_wordpool.txt	LTP141	ltpFR	6	5	-1	FISH	571	n/a	-1	n/a	n/a	n/a	n/a	n/a
790849	REC_WORD	wordpools/wasnorm_wordpool.txt	LTP141	ltpFR	6	5	-1	DIVER	476	n/a	-1	n/a	n/a	n/a	n/a	n/a
815265	WORD	wordpools/wasnorm_wordpool.txt	LTP141	ltpFR	6	6	0	MOUSE	925	n/a	1	0	0.5869140625	0.422607421875	lower	../fonts/zerothre.ttf
819160	WORD	wordpools/wasnorm_wordpool.txt	LTP141	ltpFR	6	6	0	QUAIL	1147	n/a	0	0	0.5869140625	0.422607421875	lower	../fonts/zerothre.ttf
823214	WORD	wordpools/wasnorm_wordpool.txt	LTP141	ltpFR	6	6	0	CROW	414	n/a	1	0	0.5869140625	0.422607421875	lower	../fonts/zerothre.ttf
827042	WORD	wordpools/wasnorm_wordpool.txt	LTP141	ltpFR	6	6	0	IRON	744	n/a	0	0	0.5869140625	0.422607421875	lower	../fonts/zerothre.ttf
831012	WORD	wordpools/wasnorm_wordpool.txt	LTP141	ltpFR	6	6	0	PEBBLE	1035	n/a	0	0	0.5869140625	0.422607421875	lower	../fonts/zerothre.ttf
835200	WORD	wordpools/wasnorm_wordpool.txt	LTP141	ltpFR	6	6	0	FOREST	593	n/a	1	0	0.5869140625	0.422607421875	lower	../fonts/zerothre.ttf
839020	WORD	wordpools/wasnorm_wordpool.txt	LTP141	ltpFR	6	6	0	PALM	1007	n/a	0	0	0.5869140625	0.422607421875	lower	../fonts/zerothre.ttf
843207	WORD	wordpools/wasnorm_wordpool.txt	LTP141	ltpFR	6	6	0	SHRUB	1299	n/a	1	0	0.5869140625	0.422607421875	lower	../fonts/zerothre.ttf
847303	WORD	wordpools/wasnorm_wordpool.txt	LTP141	ltpFR	6	6	0	CHECKERS	285	n/a	0	0	0.5869140625	0.422607421875	lower	../fonts/zerothre.ttf
851123	WORD	wordpools/wasnorm_wordpool.txt	LTP141	ltpFR	6	6	0	BUREAU	199	n/a	1	0	0.5869140625	0.422607421875	lower	../fonts/zerothre.ttf
855009	WORD	wordpools/wasnorm_wordpool.txt	LTP141	ltpFR	6	6	0	KLEENEX	782	n/a	0	0	0.5869140625	0.422607421875	lower	../fonts/zerothre.ttf
859189	WORD	wordpools/wasnorm_wordpool.txt	LTP141	ltpFR	6	6	0	LOLLIPOP	842	n/a	0	0	0.5869140625	0.422607421875	lower	../fonts/zerothre.ttf
863168	WORD	wordpools/wasnorm_wordpool.txt	LTP141	ltpFR	6	6	0	MAPLE	866	n/a	1	0	0.5869140625	0.422607421875	lower	../fonts/zerothre.ttf
867163	WORD	wordpools/wasnorm_wordpool.txt	LTP141	ltpFR	6	6	0	SENATE	1267	n/a	1	0	0.5869140625	0.422607421875	lower	../fonts/zerothre.ttf
871325	WORD	wordpools/wasnorm_wordpool.txt	LTP141	ltpFR	6	6	0	SNOB	1335	n/a	1	0	0.5869140625	0.422607421875	lower	../fonts/zerothre.ttf
875403	WORD	wordpools/wasnorm_wordpool.txt	LTP141	ltpFR	6	6	0	RODENT	1204	n/a	0	0	0.5869140625	0.422607421875	lower	../fonts/zerothre.ttf
881380	REC_START	n/a	LTP141	ltpFR	6	6	n/a	n/a	n/a	n/a	n/a	n/a	n/a	n/a	n/a	n/a
882273	REC_WORD	wordpools/wasnorm_wordpool.txt	LTP141	ltpFR	6	6	0	RODENT	1204	n/a	0	n/a	n/a	n/a	n/a	n/a
883675	REC_WORD	wordpools/wasnorm_wordpool.txt	LTP141	ltpFR	6	6	0	SNOB	1335	n/a	1	n/a	n/a	n/a	n/a	n/a
885241	REC_WORD	wordpools/wasnorm_wordpool.txt	LTP141	ltpFR	6	6	0	SENATE	1267	n/a	1	n/a	n/a	n/a	n/a	n/a
887147	REC_WORD	wordpools/wasnorm_wordpool.txt	LTP141	ltpFR	6	6	0	LOLLIPOP	842	n/a	0	n/a	n/a	n/a	n/a	n/a
893582	REC_WORD	wordpools/wasnorm_wordpool.txt	LTP141	ltpFR	6	6	0	FOREST	593	n/a	1	n/a	n/a	n/a	n/a	n/a
895208	REC_WORD	wordpools/wasnorm_wordpool.txt	LTP141	ltpFR	6	6	0	SHRUB	1299	n/a	1	n/a	n/a	n/a	n/a	n/a
905405	REC_WORD	wordpools/wasnorm_wordpool.txt	LTP141	ltpFR	6	6	0	MOUSE	925	n/a	1	n/a	n/a	n/a	n/a	n/a
910803	REC_WORD	wordpools/wasnorm_wordpool.txt	LTP141	ltpFR	6	6	0	IRON	744	n/a	0	n/a	n/a	n/a	n/a	n/a
935163	REC_WORD	wordpools/wasnorm_wordpool.txt	LTP141	ltpFR	6	6	0	PALM	1007	n/a	0	n/a	n/a	n/a	n/a	n/a
967155	WORD	wordpools/wasnorm_wordpool.txt	LTP141	ltpFR	6	7	0	MARS	873	n/a	0	0	0.5869140625	0.422607421875	lower	../fonts/zerothre.ttf
971217	WORD	wordpools/wasnorm_wordpool.txt	LTP141	ltpFR	6	7	0	LITERATURE	831	n/a	1	0	0.5869140625	0.422607421875	lower	../fonts/zerothre.ttf
975196	WORD	wordpools/wasnorm_wordpool.txt	LTP141	ltpFR	6	7	0	LIBRARY	816	n/a	1	0	0.5869140625	0.422607421875	lower	../fonts/zerothre.ttf
979258	WORD	wordpools/wasnorm_wordpool.txt	LTP141	ltpFR	6	7	0	ORANGE	980	n/a	0	0	0.5869140625	0.422607421875	lower	../fonts/zerothre.ttf
983069	WORD	wordpools/wasnorm_wordpool.txt	LTP141	ltpFR	6	7	0	CRIMINAL	409	n/a	1	0	0.5869140625	0.422607421875	lower	../fonts/zerothre.ttf
987031	WORD	wordpools/wasnorm_wordpool.txt	LTP141	ltpFR	6	7	0	LIME	823	n/a	0	0	0.5869140625	0.422607421875	lower	../fonts/zerothre.ttf
991144	WORD	wordpools/wasnorm_wordpool.txt	LTP141	ltpFR	6	7	0	SHOELACE	1289	n/a	0	0	0.5869140625	0.422607421875	lower	../fonts/zerothre.ttf
995090	WORD	wordpools/wasnorm_wordpool.txt	LTP141	ltpFR	6	7	0	LACE	792	n/a	0	0	0.5869140625	0.422607421875	lower	../fonts/zerothre.ttf
999202	WORD	wordpools/wasnorm_wordpool.txt	LTP141	ltpFR	6	7	0	NEPTUNE	943	n/a	1	0	0.5869140625	0.422607421875	lower	../fonts/zerothre.ttf
1003372	WORD	wordpools/wasnorm_wordpool.txt	LTP141	ltpFR	6	7	0	RACK	1154	n/a	1	0	0.5869140625	0.422607421875	lower	../fonts/zerothre.ttf
1007549	WORD	wordpools/wasnorm_wordpool.txt	LTP141	ltpFR	6	7	0	FIREPLACE	570	n/a	1	0	0.5869140625	0.422607421875	lower	../fonts/zerothre.ttf
1011636	WORD	wordpools/wasnorm_wordpool.txt	LTP141	ltpFR	6	7	0	CLAW	319	n/a	0	0	0.5869140625	0.422607421875	lower	../fonts/zerothre.ttf
1015491	WORD	wordpools/wasnorm_wordpool.txt	LTP141	ltpFR	6	7	0	VET	1560	n/a	1	0	0.5869140625	0.422607421875	lower	../fonts/zerothre.ttf
1019478	WORD	wordpools/wasnorm_wordpool.txt	LTP141	ltpFR	6	7	0	THICKET	1455	n/a	1	0	0.5869140625	0.422607421875	lower	../fonts/zerothre.ttf
1023349	WORD	wordpools/wasnorm_wordpool.txt	LTP141	ltpFR	6	7	0	SHELTER	1282	n/a	1	0	0.5869140625	0.422607421875	lower	../fonts/zerothre.ttf
1027502	WORD	wordpools/wasnorm_wordpool.txt	LTP141	ltpFR	6	7	0	PRUNE	1134	n/a	0	0	0.5869140625	0.422607421875	lower	../fonts/zerothre.ttf
1033304	REC_START	n/a	LTP141	ltpFR	6	7	n/a	n/a	n/a	n/a	n/a	n/a	n/a	n/a	n/a	n/a
1034057	REC_WORD	wordpools/wasnorm_wordpool.txt	LTP141	ltpFR	6	7	0	PRUNE	1134	n/a	0	n/a	n/a	n/a	n/a	n/a
1035633	REC_WORD	wordpools/wasnorm_wordpool.txt	LTP141	ltpFR	6	7	0	SHELTER	1282	n/a	1	n/a	n/a	n/a	n/a	n/a
1037689	REC_WORD	wordpools/wasnorm_wordpool.txt	LTP141	ltpFR	6	7	0	LIME	823	n/a	0	n/a	n/a	n/a	n/a	n/a
1040029	REC_WORD	wordpools/wasnorm_wordpool.txt	LTP141	ltpFR	6	7	0	MARS	873	n/a	0	n/a	n/a	n/a	n/a	n/a
1041864	REC_WORD	wordpools/wasnorm_wordpool.txt	LTP141	ltpFR	6	7	0	NEPTUNE	943	n/a	1	n/a	n/a	n/a	n/a	n/a
1060233	REC_WORD	wordpools/wasnorm_wordpool.txt	LTP141	ltpFR	6	7	0	SHOELACE	1289	n/a	0	n/a	n/a	n/a	n/a	n/a
1062168	REC_WORD	wordpools/wasnorm_wordpool.txt	LTP141	ltpFR	6	7	0	LACE	792	n/a	0	n/a	n/a	n/a	n/a	n/a
1078845	REC_WORD	wordpools/wasnorm_wordpool.txt	LTP141	ltpFR	6	7	0	LOLLIPOP	842	n/a	0	n/a	n/a	n/a	n/a	n/a
1114767	WORD	wordpools/wasnorm_wordpool.txt	LTP141	ltpFR	6	8	1	DONKEY	484	n/a	1	1	0.412841796875	0.57763671875	upper	../fonts/amplitud.ttf
1118621	WORD	wordpools/wasnorm_wordpool.txt	LTP141	ltpFR	6	8	1	COLUMN	350	n/a	0	1	0.412841796875	0.57763671875	upper	../fonts/amplitud.ttf
1122624	WORD	wordpools/wasnorm_wordpool.txt	LTP141	ltpFR	6	8	1	EMPLOYER	532	n/a	1	1	0.412841796875	0.57763671875	upper	../fonts/amplitud.ttf
1126479	WORD	wordpools/wasnorm_wordpool.txt	LTP141	ltpFR	6	8	1	SPIDER	1351	n/a	1	1	0.412841796875	0.57763671875	upper	../fonts/amplitud.ttf
1130491	WORD	wordpools/wasnorm_wordpool.txt	LTP141	ltpFR	6	8	0	SUPERMARKET	1409	n/a	1	0	0.5869140625	0.422607421875	lower	../fonts/zerothre.ttf
1134420	WORD	wordpools/wasnorm_wordpool.txt	LTP141	ltpFR	6	8	0	CHIPMUNK	304	n/a	0	0	0.5869140625	0.422607421875	lower	../fonts/zerothre.ttf
1138514	WORD	wordpools/wasnorm_wordpool.txt	LTP141	ltpFR	6	8	0	FIG	563	n/a	0	0	0.5869140625	0.422607421875	lower	../fonts/zerothre.ttf
1142369	WORD	wordpools/wasnorm_wordpool.txt	LTP141	ltpFR	6	8	0	PANTS	1010	n/a	0	0	0.5869140625	0.422607421875	lower	../fonts/zerothre.ttf
1146231	WORD	wordpools/wasnorm_wordpool.txt	LTP141	ltpFR	6	8	0	NEEDLE	941	n/a	0	0	0.5869140625	0.422607421875	lower	../fonts/zerothre.ttf
1150318	WORD	wordpools/wasnorm_wordpool.txt	LTP141	ltpFR	6	8	1	PORCUPINE	1107	n/a	1	1	0.412841796875	0.57763671875	upper	../fonts/amplitud.ttf
1154172	WORD	wordpools/wasnorm_wordpool.txt	LTP141	ltpFR	6	8	1	CHIEF	298	n/a	1	1	0.412841796875	0.57763671875	upper	../fonts/amplitud.ttf
1158109	WORD	wordpools/wasnorm_wordpool.txt	LTP141	ltpFR	6	8	1	SKILLET	1317	n/a	1	1	0.412841796875	0.57763671875	upper	../fonts/amplitud.ttf
1161954	WORD	wordpools/wasnorm_wordpool.txt	LTP141	ltpFR	6	8	1	OVEN	991	n/a	0	1	0.412841796875	0.57763671875	upper	../fonts/amplitud.ttf
1166082	WORD	wordpools/wasnorm_wordpool.txt	LTP141	ltpFR	6	8	0	SILVERWARE	1308	n/a	0	0	0.5869140625	0.422607421875	lower	../fonts/zerothre.ttf
1170154	WORD	wordpools/wasnorm_wordpool.txt	LTP141	ltpFR	6	8	0	LAMB	797	n/a	1	0	0.5869140625	0.422607421875	lower	../fonts/zerothre.ttf
1174157	WORD	wordpools/wasnorm_wordpool.txt	LTP141	ltpFR	6	8	0	ROACH	1195	n/a	0	0	0.5869140625	0.422607421875	lower	../fonts/zerothre.ttf
1180101	REC_START	n/a	LTP141	ltpFR	6	8	n/a	n/a	n/a	n/a	n/a	n/a	n/a	n/a	n/a	n/a
1180864	REC_WORD	wordpools/wasnorm_wordpool.txt	LTP141	ltpFR	6	8	0	ROACH	1195	n/a	0	n/a	n/a	n/a	n/a	n/a
1182530	REC_WORD	wordpools/wasnorm_wordpool.txt	LTP141	ltpFR	6	8	0	LAMB	797	n/a	1	n/a	n/a	n/a	n/a	n/a
1194603	REC_WORD	wordpools/wasnorm_wordpool.txt	LTP141	ltpFR	6	8	1	DONKEY	484	n/a	1	n/a	n/a	n/a	n/a	n/a
1196288	REC_WORD	wordpools/wasnorm_wordpool.txt	LTP141	ltpFR	6	8	1	EMPLOYER	532	n/a	1	n/a	n/a	n/a	n/a	n/a
1198389	REC_WORD	wordpools/wasnorm_wordpool.txt	LTP141	ltpFR	6	8	1	COLUMN	350	n/a	0	n/a	n/a	n/a	n/a	n/a
1220853	REC_WORD	wordpools/wasnorm_wordpool.txt	LTP141	ltpFR	6	8	0	ROACH	1195	n/a	0	n/a	n/a	n/a	n/a	n/a
1242609	REC_WORD	wordpools/wasnorm_wordpool.txt	LTP141	ltpFR	6	8	0	PANTS	1010	n/a	0	n/a	n/a	n/a	n/a	n/a
1264286	WORD	wordpools/wasnorm_wordpool.txt	LTP141	ltpFR	6	9	1	LUGGAGE	847	n/a	0	1	0.412841796875	0.57763671875	upper	../fonts/amplitud.ttf
1268323	WORD	wordpools/wasnorm_wordpool.txt	LTP141	ltpFR	6	9	1	MOAT	903	n/a	0	1	0.412841796875	0.57763671875	upper	../fonts/amplitud.ttf
1272169	WORD	wordpools/wasnorm_wordpool.txt	LTP141	ltpFR	6	9	1	KING	777	n/a	1	1	0.412841796875	0.57763671875	upper	../fonts/amplitud.ttf
1276297	WORD	wordpools/wasnorm_wordpool.txt	LTP141	ltpFR	6	9	1	DENTIST	447	n/a	1	1	0.412841796875	0.57763671875	upper	../fonts/amplitud.ttf
1280459	WORD	wordpools/wasnorm_wordpool.txt	LTP141	ltpFR	6	9	1	GULL	671	n/a	1	1	0.412841796875	0.57763671875	upper	../fonts/amplitud.ttf
1284471	WORD	wordpools/wasnorm_wordpool.txt	LTP141	ltpFR	6	9	1	CARDINAL	244	n/a	1	1	0.412841796875	0.57763671875	upper	../fonts/amplitud.ttf
1288475	WORD	wordpools/wasnorm_wordpool.txt	LTP141	ltpFR	6	9	1	FOE	587	n/a	1	1	0.412841796875	0.57763671875	upper	../fonts/amplitud.ttf
1292370	WORD	wordpools/wasnorm_wordpool.txt	LTP141	ltpFR	6	9	1	ELECTRICIAN	521	n/a	1	1	0.412841796875	0.57763671875	upper	../fonts/amplitud.ttf
1296449	WORD	wordpools/wasnorm_wordpool.txt	LTP141	ltpFR	6	9	1	CONDUCTOR	362	n/a	1	1	0.412841796875	0.57763671875	upper	../fonts/amplitud.ttf
1300369	WORD	wordpools/wasnorm_wordpool.txt	LTP141	ltpFR	6	9	1	FUNERAL	613	n/a	0	1	0.412841796875	0.57763671875	upper	../fonts/amplitud.ttf
1304555	WORD	wordpools/wasnorm_wordpool.txt	LTP141	ltpFR	6	9	1	MINT	898	n/a	0	1	0.412841796875	0.57763671875	upper	../fonts/amplitud.ttf
1308526	WORD	wordpools/wasnorm_wordpool.txt	LTP141	ltpFR	6	9	1	PLANT	1083	n/a	1	1	0.412841796875	0.57763671875	upper	../fonts/amplitud.ttf
1312596	WORD	wordpools/wasnorm_wordpool.txt	LTP141	ltpFR	6	9	1	SUITCASE	1403	n/a	n/a	1	0.412841796875	0.57763671875	upper	../fonts/amplitud.ttf
1315617	SLOW_MSG	n/a	LTP141	ltpFR	6	9	n/a	n/a	n/a	n/a	n/a	n/a	n/a	n/a	n/a	n/a
1318165	WORD	wordpools/wasnorm_wordpool.txt	LTP141	ltpFR	6	9	1	GREASE	660	n/a	0	1	0.412841796875	0.57763671875	upper	../fonts/amplitud.ttf
1322177	WORD	wordpools/wasnorm_wordpool.txt	LTP141	ltpFR	6	9	1	PLATE	1086	n/a	0	1	0.412841796875	0.57763671875	upper	../fonts/amplitud.ttf
1326281	WORD	wordpools/wasnorm_wordpool.txt	LTP141	ltpFR	6	9	1	MOSS	918	n/a	1	1	0.412841796875	0.57763671875	upper	../fonts/amplitud.ttf
1332283	REC_START	n/a	LTP141	ltpFR	6	9	n/a	n/a	n/a	n/a	n/a	n/a	n/a	n/a	n/a	n/a
1333201	REC_WORD	wordpools/wasnorm_wordpool.txt	LTP141	ltpFR	6	9	1	MOSS	918	n/a	1	n/a	n/a	n/a	n/a	n/a
1334972	REC_WORD	wordpools/wasnorm_wordpool.txt	LTP141	ltpFR	6	9	1	GREASE	660	n/a	0	n/a	n/a	n/a	n/a	n/a
1336703	REC_WORD	wordpools/wasnorm_wordpool.txt	LTP141	ltpFR	6	9	1	PLANT	1083	n/a	1	n/a	n/a	n/a	n/a	n/a
1338763	REC_WORD	wordpools/wasnorm_wordpool.txt	LTP141	ltpFR	6	9	1	LUGGAGE	847	n/a	0	n/a	n/a	n/a	n/a	n/a
1340882	REC_WORD	wordpools/wasnorm_wordpool.txt	LTP141	ltpFR	6	9	1	SUITCASE	1403	n/a	n/a	n/a	n/a	n/a	n/a	n/a
1342899	REC_WORD	wordpools/wasnorm_wordpool.txt	LTP141	ltpFR	6	9	1	MOAT	903	n/a	0	n/a	n/a	n/a	n/a	n/a
1344685	REC_WORD	wordpools/wasnorm_wordpool.txt	LTP141	ltpFR	6	9	1	KING	777	n/a	1	n/a	n/a	n/a	n/a	n/a
1346540	REC_WORD	wordpools/wasnorm_wordpool.txt	LTP141	ltpFR	6	9	1	CONDUCTOR	362	n/a	1	n/a	n/a	n/a	n/a	n/a
1352557	REC_WORD	wordpools/wasnorm_wordpool.txt	LTP141	ltpFR	6	9	1	ELECTRICIAN	521	n/a	1	n/a	n/a	n/a	n/a	n/a
1358977	REC_WORD	wordpools/wasnorm_wordpool.txt	LTP141	ltpFR	6	9	n/a	SKULL	1320	n/a	n/a	n/a	n/a	n/a	n/a	n/a
1361691	REC_WORD	wordpools/wasnorm_wordpool.txt	LTP141	ltpFR	6	9	1	CARDINAL	244	n/a	1	n/a	n/a	n/a	n/a	n/a
1369079	REC_WORD	wordpools/wasnorm_wordpool.txt	LTP141	ltpFR	6	9	1	FUNERAL	613	n/a	0	n/a	n/a	n/a	n/a	n/a
1412647	WORD	wordpools/wasnorm_wordpool.txt	LTP141	ltpFR	6	10	1	PENCIL	1042	n/a	0	1	0.412841796875	0.57763671875	upper	../fonts/amplitud.ttf
1416609	WORD	wordpools/wasnorm_wordpool.txt	LTP141	ltpFR	6	10	1	PEN	1041	n/a	0	1	0.412841796875	0.57763671875	upper	../fonts/amplitud.ttf
1420654	WORD	wordpools/wasnorm_wordpool.txt	LTP141	ltpFR	6	10	1	POSSUM	1112	n/a	1	1	0.412841796875	0.57763671875	upper	../fonts/amplitud.ttf
1424774	WORD	wordpools/wasnorm_wordpool.txt	LTP141	ltpFR	6	10	1	BISON	131	n/a	1	1	0.412841796875	0.57763671875	upper	../fonts/amplitud.ttf
1428720	WORD	wordpools/wasnorm_wordpool.txt	LTP141	ltpFR	6	10	1	MOTOR	922	n/a	0	1	0.412841796875	0.57763671875	upper	../fonts/amplitud.ttf
1432923	WORD	wordpools/wasnorm_wordpool.txt	LTP141	ltpFR	6	10	1	GHOST	634	n/a	0	1	0.412841796875	0.57763671875	upper	../fonts/amplitud.ttf
1437094	WORD	wordpools/wasnorm_wordpool.txt	LTP141	ltpFR	6	10	1	DISC	473	n/a	0	1	0.412841796875	0.57763671875	upper	../fonts/amplitud.ttf
1441190	WORD	wordpools/wasnorm_wordpool.txt	LTP141	ltpFR	6	10	1	FELLOW	558	n/a	1	1	0.412841796875	0.57763671875	upper	../fonts/amplitud.ttf
1445335	WORD	wordpools/wasnorm_wordpool.txt	LTP141	ltpFR	6	10	1	COIN	343	n/a	0	1	0.412841796875	0.57763671875	upper	../fonts/amplitud.ttf
1449155	WORD	wordpools/wasnorm_wordpool.txt	LTP141	ltpFR	6	10	1	BREAST	171	n/a	1	1	0.412841796875	0.57763671875	upper	../fonts/amplitud.ttf
1453192	WORD	wordpools/wasnorm_wordpool.txt	LTP141	ltpFR	6	10	1	SALAD	1224	n/a	0	1	0.412841796875	0.57763671875	upper	../fonts/amplitud.ttf
1457371	WORD	wordpools/wasnorm_wordpool.txt	LTP141	ltpFR	6	10	1	FRIEND	606	n/a	1	1	0.412841796875	0.57763671875	upper	../fonts/amplitud.ttf
1461483	WORD	wordpools/wasnorm_wordpool.txt	LTP141	ltpFR	6	10	1	ROBOT	1200	n/a	0	1	0.412841796875	0.57763671875	upper	../fonts/amplitud.ttf
1465395	WORD	wordpools/wasnorm_wordpool.txt	LTP141	ltpFR	6	10	1	SKELETON	1314	n/a	0	1	0.412841796875	0.57763671875	upper	../fonts/amplitud.ttf
1469224	WORD	wordpools/wasnorm_wordpool.txt	LTP141	ltpFR	6	10	1	COBBLER	335	n/a	1	1	0.412841796875	0.57763671875	upper	../fonts/amplitud.ttf
1473344	WORD	wordpools/wasnorm_wordpool.txt	LTP141	ltpFR	6	10	1	CASHIER	254	n/a	1	1	0.412841796875	0.57763671875	upper	../fonts/amplitud.ttf
1479179	REC_START	n/a	LTP141	ltpFR	6	10	n/a	n/a	n/a	n/a	n/a	n/a	n/a	n/a	n/a	n/a
1479882	REC_WORD	wordpools/wasnorm_wordpool.txt	LTP141	ltpFR	6	10	1	CASHIER	254	n/a	1	n/a	n/a	n/a	n/a	n/a
1482027	REC_WORD	wordpools/wasnorm_wordpool.txt	LTP141	ltpFR	6	10	1	COBBLER	335	n/a	1	n/a	n/a	n/a	n/a	n/a
1487625	REC_WORD	wordpools/wasnorm_wordpool.txt	LTP141	ltpFR	6	10	1	PEN	1041	n/a	0	n/a	n/a	n/a	n/a	n/a
1489415	REC_WORD	wordpools/wasnorm_wordpool.txt	LTP141	ltpFR	6	10	1	PENCIL	1042	n/a	0	n/a	n/a	n/a	n/a	n/a
1493606	REC_WORD	wordpools/wasnorm_wordpool.txt	LTP141	ltpFR	6	10	1	SKELETON	1314	n/a	0	n/a	n/a	n/a	n/a	n/a
1509759	REC_WORD	wordpools/wasnorm_wordpool.txt	LTP141	ltpFR	6	10	n/a	FOLLOWER	589	n/a	n/a	n/a	n/a	n/a	n/a	n/a
1512647	REC_WORD	wordpools/wasnorm_wordpool.txt	LTP141	ltpFR	6	10	1	FRIEND	606	n/a	1	n/a	n/a	n/a	n/a	n/a
1561234	WORD	wordpools/wasnorm_wordpool.txt	LTP141	ltpFR	6	11	0	CHOCOLATE	306	n/a	0	0	0.5869140625	0.422607421875	lower	../fonts/zerothre.ttf
1565271	WORD	wordpools/wasnorm_wordpool.txt	LTP141	ltpFR	6	11	0	TAPIOCA	1434	n/a	0	0	0.5869140625	0.422607421875	lower	../fonts/zerothre.ttf
1569108	WORD	wordpools/wasnorm_wordpool.txt	LTP141	ltpFR	6	11	0	CEREAL	272	n/a	0	0	0.5869140625	0.422607421875	lower	../fonts/zerothre.ttf
1573295	WORD	wordpools/wasnorm_wordpool.txt	LTP141	ltpFR	6	11	0	FROST	609	n/a	0	0	0.5869140625	0.422607421875	lower	../fonts/zerothre.ttf
1577149	WORD	wordpools/wasnorm_wordpool.txt	LTP141	ltpFR	6	11	1	CLIMBER	323	n/a	1	1	0.412841796875	0.57763671875	upper	../fonts/amplitud.ttf
1581010	WORD	wordpools/wasnorm_wordpool.txt	LTP141	ltpFR	6	11	1	BELLY	119	n/a	0	1	0.412841796875	0.57763671875	upper	../fonts/amplitud.ttf
1585005	WORD	wordpools/wasnorm_wordpool.txt	LTP141	ltpFR	6	11	1	ZEBRA	1635	n/a	1	1	0.412841796875	0.57763671875	upper	../fonts/amplitud.ttf
1589135	WORD	wordpools/wasnorm_wordpool.txt	LTP141	ltpFR	6	11	1	CREATURE	403	n/a	1	1	0.412841796875	0.57763671875	upper	../fonts/amplitud.ttf
1593330	WORD	wordpools/wasnorm_wordpool.txt	LTP141	ltpFR	6	11	0	CLAM	315	n/a	0	0	0.5869140625	0.422607421875	lower	../fonts/zerothre.ttf
1597442	WORD	wordpools/wasnorm_wordpool.txt	LTP141	ltpFR	6	11	0	PARTNER	1017	n/a	1	0	0.5869140625	0.422607421875	lower	../fonts/zerothre.ttf
1601354	WORD	wordpools/wasnorm_wordpool.txt	LTP141	ltpFR	6	11	1	CATERPILLAR	259	n/a	1	1	0.412841796875	0.57763671875	upper	../fonts/amplitud.ttf
1605548	WORD	wordpools/wasnorm_wordpool.txt	LTP141	ltpFR	6	11	1	LOBSTER	837	n/a	1	1	0.412841796875	0.57763671875	upper	../fonts/amplitud.ttf
1609760	WORD	wordpools/wasnorm_wordpool.txt	LTP141	ltpFR	6	11	1	PISTOL	1075	n/a	0	1	0.412841796875	0.57763671875	upper	../fonts/amplitud.ttf
1613838	WORD	wordpools/wasnorm_wordpool.txt	LTP141	ltpFR	6	11	1	PEOPLE	1046	n/a	1	1	0.412841796875	0.57763671875	upper	../fonts/amplitud.ttf
1618025	WORD	wordpools/wasnorm_wordpool.txt	LTP141	ltpFR	6	11	0	INSECT	740	n/a	0	0	0.5869140625	0.422607421875	lower	../fonts/zerothre.ttf
1622155	WORD	wordpools/wasnorm_wordpool.txt	LTP141	ltpFR	6	11	0	PAVEMENT	1028	n/a	1	0	0.5869140625	0.422607421875	lower	../fonts/zerothre.ttf
1628006	REC_START	n/a	LTP141	ltpFR	6	11	n/a	n/a	n/a	n/a	n/a	n/a	n/a	n/a	n/a	n/a
1628654	REC_WORD	wordpools/wasnorm_wordpool.txt	LTP141	ltpFR	6	11	0	PAVEMENT	1028	n/a	1	n/a	n/a	n/a	n/a	n/a
1630410	REC_WORD	wordpools/wasnorm_wordpool.txt	LTP141	ltpFR	6	11	0	INSECT	740	n/a	0	n/a	n/a	n/a	n/a	n/a
1632835	REC_WORD	wordpools/wasnorm_wordpool.txt	LTP141	ltpFR	6	11	1	PEOPLE	1046	n/a	1	n/a	n/a	n/a	n/a	n/a
1635279	REC_WORD	wordpools/wasnorm_wordpool.txt	LTP141	ltpFR	6	11	1	CLIMBER	323	n/a	1	n/a	n/a	n/a	n/a	n/a
1663301	REC_WORD	wordpools/wasnorm_wordpool.txt	LTP141	ltpFR	6	11	0	CHOCOLATE	306	n/a	0	n/a	n/a	n/a	n/a	n/a
1664962	REC_WORD	wordpools/wasnorm_wordpool.txt	LTP141	ltpFR	6	11	0	TAPIOCA	1434	n/a	0	n/a	n/a	n/a	n/a	n/a
1711252	WORD	wordpools/wasnorm_wordpool.txt	LTP141	ltpFR	6	12	1	CABIN	211	n/a	0	1	0.412841796875	0.57763671875	upper	../fonts/amplitud.ttf
1715089	WORD	wordpools/wasnorm_wordpool.txt	LTP141	ltpFR	6	12	1	BULLY	196	n/a	1	1	0.412841796875	0.57763671875	upper	../fonts/amplitud.ttf
1719050	WORD	wordpools/wasnorm_wordpool.txt	LTP141	ltpFR	6	12	1	HEDGE	699	n/a	0	1	0.412841796875	0.57763671875	upper	../fonts/amplitud.ttf
1723204	WORD	wordpools/wasnorm_wordpool.txt	LTP141	ltpFR	6	12	0	LAWN	805	n/a	1	0	0.5869140625	0.422607421875	lower	../fonts/zerothre.ttf
1727233	WORD	wordpools/wasnorm_wordpool.txt	LTP141	ltpFR	6	12	0	TOENAIL	1474	n/a	1	0	0.5869140625	0.422607421875	lower	../fonts/zerothre.ttf
1731245	WORD	wordpools/wasnorm_wordpool.txt	LTP141	ltpFR	6	12	1	HELMET	702	n/a	0	1	0.412841796875	0.57763671875	upper	../fonts/amplitud.ttf
1735274	WORD	wordpools/wasnorm_wordpool.txt	LTP141	ltpFR	6	12	1	BAG	69	n/a	0	1	0.412841796875	0.57763671875	upper	../fonts/amplitud.ttf
1739203	WORD	wordpools/wasnorm_wordpool.txt	LTP141	ltpFR	6	12	1	TICKET	1464	n/a	0	1	0.412841796875	0.57763671875	upper	../fonts/amplitud.ttf
1743348	WORD	wordpools/wasnorm_wordpool.txt	LTP141	ltpFR	6	12	0	GIRL	637	n/a	1	0	0.5869140625	0.422607421875	lower	../fonts/zerothre.ttf
1747243	WORD	wordpools/wasnorm_wordpool.txt	LTP141	ltpFR	6	12	0	PRINTER	1126	n/a	1	0	0.5869140625	0.422607421875	lower	../fonts/zerothre.ttf
1751388	WORD	wordpools/wasnorm_wordpool.txt	LTP141	ltpFR	6	12	0	KEYBOARD	774	n/a	1	0	0.5869140625	0.422607421875	lower	../fonts/zerothre.ttf
1755284	WORD	wordpools/wasnorm_wordpool.txt	LTP141	ltpFR	6	12	0	FOOT	590	n/a	0	0	0.5869140625	0.422607421875	lower	../fonts/zerothre.ttf
1759296	WORD	wordpools/wasnorm_wordpool.txt	LTP141	ltpFR	6	12	0	CUBE	420	n/a	0	0	0.5869140625	0.422607421875	lower	../fonts/zerothre.ttf
1763266	WORD	wordpools/wasnorm_wordpool.txt	LTP141	ltpFR	6	12	0	CONE	363	n/a	0	0	0.5869140625	0.422607421875	lower	../fonts/zerothre.ttf
1767445	WORD	wordpools/wasnorm_wordpool.txt	LTP141	ltpFR	6	12	1	PASSENGER	1020	n/a	1	1	0.412841796875	0.57763671875	upper	../fonts/amplitud.ttf
1771440	WORD	wordpools/wasnorm_wordpool.txt	LTP141	ltpFR	6	12	1	CHAMPION	279	n/a	1	1	0.412841796875	0.57763671875	upper	../fonts/amplitud.ttf
1777234	REC_START	n/a	LTP141	ltpFR	6	12	n/a	n/a	n/a	n/a	n/a	n/a	n/a	n/a	n/a	n/a
1778431	REC_WORD	wordpools/wasnorm_wordpool.txt	LTP141	ltpFR	6	12	1	CHAMPION	279	n/a	1	n/a	n/a	n/a	n/a	n/a
1780935	REC_WORD	wordpools/wasnorm_wordpool.txt	LTP141	ltpFR	6	12	1	PASSENGER	1020	n/a	1	n/a	n/a	n/a	n/a	n/a
1782906	REC_WORD	wordpools/wasnorm_wordpool.txt	LTP141	ltpFR	6	12	0	KEYBOARD	774	n/a	1	n/a	n/a	n/a	n/a	n/a
1784951	REC_WORD	wordpools/wasnorm_wordpool.txt	LTP141	ltpFR	6	12	0	TOENAIL	1474	n/a	1	n/a	n/a	n/a	n/a	n/a
1823095	REC_WORD	wordpools/wasnorm_wordpool.txt	LTP141	ltpFR	6	12	0	GIRL	637	n/a	1	n/a	n/a	n/a	n/a	n/a
1852820	REST_REWET	n/a	LTP141	ltpFR	6	12	n/a	n/a	n/a	n/a	n/a	n/a	n/a	n/a	n/a	n/a
2359866	WORD	wordpools/wasnorm_wordpool.txt	LTP141	ltpFR	6	13	0	GRASSHOPPER	656	n/a	0	0	0.5869140625	0.422607421875	lower	../fonts/zerothre.ttf
2363828	WORD	wordpools/wasnorm_wordpool.txt	LTP141	ltpFR	6	13	0	SOFTBALL	1343	n/a	0	0	0.5869140625	0.422607421875	lower	../fonts/zerothre.ttf
2367948	WORD	wordpools/wasnorm_wordpool.txt	LTP141	ltpFR	6	13	0	ASPIRIN	47	n/a	0	0	0.5869140625	0.422607421875	lower	../fonts/zerothre.ttf
2372043	WORD	wordpools/wasnorm_wordpool.txt	LTP141	ltpFR	6	13	0	TABLET	1427	n/a	1	0	0.5869140625	0.422607421875	lower	../fonts/zerothre.ttf
2376106	WORD	wordpools/wasnorm_wordpool.txt	LTP141	ltpFR	6	13	0	CASHEW	253	n/a	0	0	0.5869140625	0.422607421875	lower	../fonts/zerothre.ttf
2380143	WORD	wordpools/wasnorm_wordpool.txt	LTP141	ltpFR	6	13	0	SHELL	1281	n/a	0	0	0.5869140625	0.422607421875	lower	../fonts/zerothre.ttf
2384247	WORD	wordpools/wasnorm_wordpool.txt	LTP141	ltpFR	6	13	0	CONCRETE	361	n/a	1	0	0.5869140625	0.422607421875	lower	../fonts/zerothre.ttf
2388400	WORD	wordpools/wasnorm_wordpool.txt	LTP141	ltpFR	6	13	0	NEUTRON	947	n/a	0	0	0.5869140625	0.422607421875	lower	../fonts/zerothre.ttf
2392296	WORD	wordpools/wasnorm_wordpool.txt	LTP141	ltpFR	6	13	0	BALLERINA	74	n/a	1	0	0.5869140625	0.422607421875	lower	../fonts/zerothre.ttf
2396150	WORD	wordpools/wasnorm_wordpool.txt	LTP141	ltpFR	6	13	0	RANCH	1166	n/a	1	0	0.5869140625	0.422607421875	lower	../fonts/zerothre.ttf
2400162	WORD	wordpools/wasnorm_wordpool.txt	LTP141	ltpFR	6	13	0	HIGHWAY	707	n/a	1	0	0.5869140625	0.422607421875	lower	../fonts/zerothre.ttf
2404006	WORD	wordpools/wasnorm_wordpool.txt	LTP141	ltpFR	6	13	0	SHUTTER	1300	n/a	1	0	0.5869140625	0.422607421875	lower	../fonts/zerothre.ttf
2407819	WORD	wordpools/wasnorm_wordpool.txt	LTP141	ltpFR	6	13	0	ATOM	55	n/a	0	0	0.5869140625	0.422607421875	lower	../fonts/zerothre.ttf
2411731	WORD	wordpools/wasnorm_wordpool.txt	LTP141	ltpFR	6	13	0	ZUCCHINI	1638	n/a	0	0	0.5869140625	0.422607421875	lower	../fonts/zerothre.ttf
2415634	WORD	wordpools/wasnorm_wordpool.txt	LTP141	ltpFR	6	13	0	TOOL	1480	n/a	0	0	0.5869140625	0.422607421875	lower	../fonts/zerothre.ttf
2419563	WORD	wordpools/wasnorm_wordpool.txt	LTP141	ltpFR	6	13	0	UTENSIL	1542	n/a	0	0	0.5869140625	0.422607421875	lower	../fonts/zerothre.ttf
2425408	REC_START	n/a	LTP141	ltpFR	6	13	n/a	n/a	n/a	n/a	n/a	n/a	n/a	n/a	n/a	n/a
2426156	REC_WORD	wordpools/wasnorm_wordpool.txt	LTP141	ltpFR	6	13	0	UTENSIL	1542	n/a	0	n/a	n/a	n/a	n/a	n/a
2427862	REC_WORD	wordpools/wasnorm_wordpool.txt	LTP141	ltpFR	6	13	0	TOOL	1480	n/a	0	n/a	n/a	n/a	n/a	n/a
2429912	REC_WORD	wordpools/wasnorm_wordpool.txt	LTP141	ltpFR	6	13	0	GRASSHOPPER	656	n/a	0	n/a	n/a	n/a	n/a	n/a
2431898	REC_WORD	wordpools/wasnorm_wordpool.txt	LTP141	ltpFR	6	13	0	CASHEW	253	n/a	0	n/a	n/a	n/a	n/a	n/a
2433854	REC_WORD	wordpools/wasnorm_wordpool.txt	LTP141	ltpFR	6	13	0	ASPIRIN	47	n/a	0	n/a	n/a	n/a	n/a	n/a
2435879	REC_WORD	wordpools/wasnorm_wordpool.txt	LTP141	ltpFR	6	13	0	ATOM	55	n/a	0	n/a	n/a	n/a	n/a	n/a
2438688	REC_WORD	wordpools/wasnorm_wordpool.txt	LTP141	ltpFR	6	13	0	HIGHWAY	707	n/a	1	n/a	n/a	n/a	n/a	n/a
2440334	REC_WORD	wordpools/wasnorm_wordpool.txt	LTP141	ltpFR	6	13	0	RANCH	1166	n/a	1	n/a	n/a	n/a	n/a	n/a
2443586	REC_WORD	wordpools/wasnorm_wordpool.txt	LTP141	ltpFR	6	13	0	TABLET	1427	n/a	1	n/a	n/a	n/a	n/a	n/a
2456152	REC_WORD	wordpools/wasnorm_wordpool.txt	LTP141	ltpFR	6	13	0	NEUTRON	947	n/a	0	n/a	n/a	n/a	n/a	n/a
2476452	REC_WORD	wordpools/wasnorm_wordpool.txt	LTP141	ltpFR	6	13	0	BALLERINA	74	n/a	1	n/a	n/a	n/a	n/a	n/a
2505315	WORD	wordpools/wasnorm_wordpool.txt	LTP141	ltpFR	6	14	-1	LOAF	835	n/a	-1	1	1.0	1.0	upper	../fonts/Verdana.ttf
2509327	WORD	wordpools/wasnorm_wordpool.txt	LTP141	ltpFR	6	14	-1	LAUNDRY	803	n/a	-1	1	1.0	1.0	upper	../fonts/Verdana.ttf
2513455	WORD	wordpools/wasnorm_wordpool.txt	LTP141	ltpFR	6	14	-1	SHOWER	1296	n/a	-1	1	1.0	1.0	upper	../fonts/Verdana.ttf
2517509	WORD	wordpools/wasnorm_wordpool.txt	LTP141	ltpFR	6	14	-1	STRAW	1390	n/a	-1	1	1.0	1.0	upper	../fonts/Verdana.ttf
2521695	WORD	wordpools/wasnorm_wordpool.txt	LTP141	ltpFR	6	14	-1	OX	994	n/a	-1	1	1.0	1.0	upper	../fonts/Verdana.ttf
2525898	WORD	wordpools/wasnorm_wordpool.txt	LTP141	ltpFR	6	14	-1	NUCLEUS	961	n/a	-1	1	1.0	1.0	upper	../fonts/Verdana.ttf
2530035	WORD	wordpools/wasnorm_wordpool.txt	LTP141	ltpFR	6	14	-1	NITROGEN	954	n/a	-1	1	1.0	1.0	upper	../fonts/Verdana.ttf
2534231	WORD	wordpools/wasnorm_wordpool.txt	LTP141	ltpFR	6	14	-1	WOLF	1619	n/a	-1	1	1.0	1.0	upper	../fonts/Verdana.ttf
2538076	WORD	wordpools/wasnorm_wordpool.txt	LTP141	ltpFR	6	14	-1	LAMP	798	n/a	-1	1	1.0	1.0	upper	../fonts/Verdana.ttf
2542255	WORD	wordpools/wasnorm_wordpool.txt	LTP141	ltpFR	6	14	-1	GYM	674	n/a	-1	1	1.0	1.0	upper	../fonts/Verdana.ttf
2546367	WORD	wordpools/wasnorm_wordpool.txt	LTP141	ltpFR	6	14	-1	BRACELET	163	n/a	-1	1	1.0	1.0	upper	../fonts/Verdana.ttf
2550338	WORD	wordpools/wasnorm_wordpool.txt	LTP141	ltpFR	6	14	-1	POOL	1103	n/a	-1	1	1.0	1.0	upper	../fonts/Verdana.ttf
2554350	WORD	wordpools/wasnorm_wordpool.txt	LTP141	ltpFR	6	14	-1	STREAM	1392	n/a	-1	1	1.0	1.0	upper	../fonts/Verdana.ttf
2558544	WORD	wordpools/wasnorm_wordpool.txt	LTP141	ltpFR	6	14	-1	ASH	44	n/a	-1	1	1.0	1.0	upper	../fonts/Verdana.ttf
2562482	WORD	wordpools/wasnorm_wordpool.txt	LTP141	ltpFR	6	14	-1	COCKTAIL	338	n/a	-1	1	1.0	1.0	upper	../fonts/Verdana.ttf
2566477	WORD	wordpools/wasnorm_wordpool.txt	LTP141	ltpFR	6	14	-1	WHEAT	1602	n/a	-1	1	1.0	1.0	upper	../fonts/Verdana.ttf
2572113	REC_START	n/a	LTP141	ltpFR	6	14	n/a	n/a	n/a	n/a	n/a	n/a	n/a	n/a	n/a	n/a
2572801	REC_WORD	wordpools/wasnorm_wordpool.txt	LTP141	ltpFR	6	14	-1	WHEAT	1602	n/a	-1	n/a	n/a	n/a	n/a	n/a
2574398	REC_WORD	wordpools/wasnorm_wordpool.txt	LTP141	ltpFR	6	14	-1	COCKTAIL	338	n/a	-1	n/a	n/a	n/a	n/a	n/a
2576558	REC_WORD	wordpools/wasnorm_wordpool.txt	LTP141	ltpFR	6	14	-1	LOAF	835	n/a	-1	n/a	n/a	n/a	n/a	n/a
2578309	REC_WORD	wordpools/wasnorm_wordpool.txt	LTP141	ltpFR	6	14	-1	LAUNDRY	803	n/a	-1	n/a	n/a	n/a	n/a	n/a
2580539	REC_WORD	wordpools/wasnorm_wordpool.txt	LTP141	ltpFR	6	14	-1	SHOWER	1296	n/a	-1	n/a	n/a	n/a	n/a	n/a
2586485	REC_WORD	wordpools/wasnorm_wordpool.txt	LTP141	ltpFR	6	14	-1	OX	994	n/a	-1	n/a	n/a	n/a	n/a	n/a
2589488	REC_WORD	wordpools/wasnorm_wordpool.txt	LTP141	ltpFR	6	14	-1	STREAM	1392	n/a	-1	n/a	n/a	n/a	n/a	n/a
2653335	WORD	wordpools/wasnorm_wordpool.txt	LTP141	ltpFR	6	15	-1	SHAMPOO	1274	n/a	-1	1	1.0	1.0	upper	../fonts/Verdana.ttf
2657355	WORD	wordpools/wasnorm_wordpool.txt	LTP141	ltpFR	6	15	-1	CITRUS	313	n/a	-1	1	1.0	1.0	upper	../fonts/Verdana.ttf
2661467	WORD	wordpools/wasnorm_wordpool.txt	LTP141	ltpFR	6	15	-1	TART	1436	n/a	-1	1	1.0	1.0	upper	../fonts/Verdana.ttf
2665645	WORD	wordpools/wasnorm_wordpool.txt	LTP141	ltpFR	6	15	-1	PLUM	1090	n/a	-1	1	1.0	1.0	upper	../fonts/Verdana.ttf
2669707	WORD	wordpools/wasnorm_wordpool.txt	LTP141	ltpFR	6	15	-1	WAREHOUSE	1588	n/a	-1	1	1.0	1.0	upper	../fonts/Verdana.ttf
2673844	WORD	wordpools/wasnorm_wordpool.txt	LTP141	ltpFR	6	15	-1	CONTAINER	366	n/a	-1	1	1.0	1.0	upper	../fonts/Verdana.ttf
2677681	WORD	wordpools/wasnorm_wordpool.txt	LTP141	ltpFR	6	15	-1	TAVERN	1437	n/a	-1	1	1.0	1.0	upper	../fonts/Verdana.ttf
2681784	WORD	wordpools/wasnorm_wordpool.txt	LTP141	ltpFR	6	15	-1	SALOON	1228	n/a	-1	1	1.0	1.0	upper	../fonts/Verdana.ttf
2685746	WORD	wordpools/wasnorm_wordpool.txt	LTP141	ltpFR	6	15	-1	SQUID	1361	n/a	-1	1	1.0	1.0	upper	../fonts/Verdana.ttf
2689709	WORD	wordpools/wasnorm_wordpool.txt	LTP141	ltpFR	6	15	-1	LEAF	808	n/a	-1	1	1.0	1.0	upper	../fonts/Verdana.ttf
2693671	WORD	wordpools/wasnorm_wordpool.txt	LTP141	ltpFR	6	15	-1	POTTERY	1116	n/a	-1	1	1.0	1.0	upper	../fonts/Verdana.ttf
2697783	WORD	wordpools/wasnorm_wordpool.txt	LTP141	ltpFR	6	15	-1	LIGHTER	819	n/a	-1	1	1.0	1.0	upper	../fonts/Verdana.ttf
2701903	WORD	wordpools/wasnorm_wordpool.txt	LTP141	ltpFR	6	15	-1	SKI	1316	n/a	-1	1	1.0	1.0	upper	../fonts/Verdana.ttf
2705865	WORD	wordpools/wasnorm_wordpool.txt	LTP141	ltpFR	6	15	-1	TORTOISE	1486	n/a	-1	1	1.0	1.0	upper	../fonts/Verdana.ttf
2709735	WORD	wordpools/wasnorm_wordpool.txt	LTP141	ltpFR	6	15	-1	BARRACUDA	90	n/a	-1	1	1.0	1.0	upper	../fonts/Verdana.ttf
2713772	WORD	wordpools/wasnorm_wordpool.txt	LTP141	ltpFR	6	15	-1	PUDDLE	1140	n/a	-1	1	1.0	1.0	upper	../fonts/Verdana.ttf
2719550	REC_START	n/a	LTP141	ltpFR	6	15	n/a	n/a	n/a	n/a	n/a	n/a	n/a	n/a	n/a	n/a
2721420	REC_WORD	wordpools/wasnorm_wordpool.txt	LTP141	ltpFR	6	15	-1	TORTOISE	1486	n/a	-1	n/a	n/a	n/a	n/a	n/a
2722997	REC_WORD	wordpools/wasnorm_wordpool.txt	LTP141	ltpFR	6	15	-1	BARRACUDA	90	n/a	-1	n/a	n/a	n/a	n/a	n/a
2724843	REC_WORD	wordpools/wasnorm_wordpool.txt	LTP141	ltpFR	6	15	-1	PUDDLE	1140	n/a	-1	n/a	n/a	n/a	n/a	n/a
2729098	REC_WORD	wordpools/wasnorm_wordpool.txt	LTP141	ltpFR	6	15	-1	WAREHOUSE	1588	n/a	-1	n/a	n/a	n/a	n/a	n/a
2739255	REC_WORD	wordpools/wasnorm_wordpool.txt	LTP141	ltpFR	6	15	-1	CONTAINER	366	n/a	-1	n/a	n/a	n/a	n/a	n/a
2767985	REC_WORD	wordpools/wasnorm_wordpool.txt	LTP141	ltpFR	6	15	-1	LEAF	808	n/a	-1	n/a	n/a	n/a	n/a	n/a
2799773	WORD	wordpools/wasnorm_wordpool.txt	LTP141	ltpFR	6	16	-1	BOOK	149	n/a	-1	1	1.0	1.0	upper	../fonts/Verdana.ttf
2803735	WORD	wordpools/wasnorm_wordpool.txt	LTP141	ltpFR	6	16	-1	PASSAGE	1019	n/a	-1	1	1.0	1.0	upper	../fonts/Verdana.ttf
2807655	WORD	wordpools/wasnorm_wordpool.txt	LTP141	ltpFR	6	16	-1	BLANKET	135	n/a	-1	1	1.0	1.0	upper	../fonts/Verdana.ttf
2811759	WORD	wordpools/wasnorm_wordpool.txt	LTP141	ltpFR	6	16	-1	VELVET	1555	n/a	-1	1	1.0	1.0	upper	../fonts/Verdana.ttf
2815696	WORD	wordpools/wasnorm_wordpool.txt	LTP141	ltpFR	6	16	-1	WHEEL	1603	n/a	-1	1	1.0	1.0	upper	../fonts/Verdana.ttf
2819516	WORD	wordpools/wasnorm_wordpool.txt	LTP141	ltpFR	6	16	-1	FREEWAY	603	n/a	-1	1	1.0	1.0	upper	../fonts/Verdana.ttf
2823471	WORD	wordpools/wasnorm_wordpool.txt	LTP141	ltpFR	6	16	-1	CREVICE	405	n/a	-1	1	1.0	1.0	upper	../fonts/Verdana.ttf
2827292	WORD	wordpools/wasnorm_wordpool.txt	LTP141	ltpFR	6	16	-1	BASEBALL	93	n/a	-1	1	1.0	1.0	upper	../fonts/Verdana.ttf
2831354	WORD	wordpools/wasnorm_wordpool.txt	LTP141	ltpFR	6	16	-1	PEDESTRIAN	1038	n/a	-1	1	1.0	1.0	upper	../fonts/Verdana.ttf
2835374	WORD	wordpools/wasnorm_wordpool.txt	LTP141	ltpFR	6	16	-1	PEDAL	1037	n/a	-1	1	1.0	1.0	upper	../fonts/Verdana.ttf
2839419	WORD	wordpools/wasnorm_wordpool.txt	LTP141	ltpFR	6	16	-1	ROOSTER	1209	n/a	-1	1	1.0	1.0	upper	../fonts/Verdana.ttf
2843564	WORD	wordpools/wasnorm_wordpool.txt	LTP141	ltpFR	6	16	-1	LOFT	840	n/a	-1	1	1.0	1.0	upper	../fonts/Verdana.ttf
2847651	WORD	wordpools/wasnorm_wordpool.txt	LTP141	ltpFR	6	16	-1	MILK	895	n/a	-1	1	1.0	1.0	upper	../fonts/Verdana.ttf
2851804	WORD	wordpools/wasnorm_wordpool.txt	LTP141	ltpFR	6	16	-1	FOOTBALL	591	n/a	-1	1	1.0	1.0	upper	../fonts/Verdana.ttf
2855699	WORD	wordpools/wasnorm_wordpool.txt	LTP141	ltpFR	6	16	-1	GROUND	666	n/a	-1	1	1.0	1.0	upper	../fonts/Verdana.ttf
2859537	WORD	wordpools/wasnorm_wordpool.txt	LTP141	ltpFR	6	16	-1	MATTRESS	879	n/a	-1	1	1.0	1.0	upper	../fonts/Verdana.ttf
2865265	REC_START	n/a	LTP141	ltpFR	6	16	n/a	n/a	n/a	n/a	n/a	n/a	n/a	n/a	n/a	n/a
2866657	REC_WORD	wordpools/wasnorm_wordpool.txt	LTP141	ltpFR	6	16	-1	MATTRESS	879	n/a	-1	n/a	n/a	n/a	n/a	n/a
2868263	REC_WORD	wordpools/wasnorm_wordpool.txt	LTP141	ltpFR	6	16	-1	GROUND	666	n/a	-1	n/a	n/a	n/a	n/a	n/a
2869779	REC_WORD	wordpools/wasnorm_wordpool.txt	LTP141	ltpFR	6	16	-1	FOOTBALL	591	n/a	-1	n/a	n/a	n/a	n/a	n/a
2871471	REC_WORD	wordpools/wasnorm_wordpool.txt	LTP141	ltpFR	6	16	-1	BASEBALL	93	n/a	-1	n/a	n/a	n/a	n/a	n/a
2873596	REC_WORD	wordpools/wasnorm_wordpool.txt	LTP141	ltpFR	6	16	-1	BOOK	149	n/a	-1	n/a	n/a	n/a	n/a	n/a
2875132	REC_WORD	wordpools/wasnorm_wordpool.txt	LTP141	ltpFR	6	16	-1	PASSAGE	1019	n/a	-1	n/a	n/a	n/a	n/a	n/a
2876858	REC_WORD	wordpools/wasnorm_wordpool.txt	LTP141	ltpFR	6	16	-1	CREVICE	405	n/a	-1	n/a	n/a	n/a	n/a	n/a
2878570	REC_WORD	wordpools/wasnorm_wordpool.txt	LTP141	ltpFR	6	16	-1	PEDAL	1037	n/a	-1	n/a	n/a	n/a	n/a	n/a
2880270	REC_WORD	wordpools/wasnorm_wordpool.txt	LTP141	ltpFR	6	16	-1	PEDESTRIAN	1038	n/a	-1	n/a	n/a	n/a	n/a	n/a
2895416	REC_WORD	wordpools/wasnorm_wordpool.txt	LTP141	ltpFR	6	16	-1	BLANKET	135	n/a	-1	n/a	n/a	n/a	n/a	n/a
2897187	REC_WORD	wordpools/wasnorm_wordpool.txt	LTP141	ltpFR	6	16	-1	BLANKET	135	n/a	-1	n/a	n/a	n/a	n/a	n/a
2898943	REC_WORD	wordpools/wasnorm_wordpool.txt	LTP141	ltpFR	6	16	-1	WHEEL	1603	n/a	-1	n/a	n/a	n/a	n/a	n/a
2925608	REC_WORD	wordpools/wasnorm_wordpool.txt	LTP141	ltpFR	6	16	-1	LOFT	840	n/a	-1	n/a	n/a	n/a	n/a	n/a
2959680	REC_START	n/a	LTP141	ltpFR	6	n/a	n/a	n/a	n/a	n/a	n/a	n/a	n/a	n/a	n/a	n/a
2960618	FFR_REC_WORD	wordpools/wasnorm_wordpool.txt	LTP141	ltpFR	6	n/a	-1	LOFT	840	n/a	-1	n/a	n/a	n/a	n/a	n/a
2961725	FFR_REC_WORD	wordpools/wasnorm_wordpool.txt	LTP141	ltpFR	6	n/a	-1	BASEBALL	93	n/a	-1	n/a	n/a	n/a	n/a	n/a
2962877	FFR_REC_WORD	wordpools/wasnorm_wordpool.txt	LTP141	ltpFR	6	n/a	-1	FOOTBALL	591	n/a	-1	n/a	n/a	n/a	n/a	n/a
2964214	FFR_REC_WORD	wordpools/wasnorm_wordpool.txt	LTP141	ltpFR	6	n/a	1	CHEF	290	n/a	1	n/a	n/a	n/a	n/a	n/a
2966614	FFR_REC_WORD	wordpools/wasnorm_wordpool.txt	LTP141	ltpFR	6	n/a	-1	LEAF	808	n/a	-1	n/a	n/a	n/a	n/a	n/a
2967851	FFR_REC_WORD	wordpools/wasnorm_wordpool.txt	LTP141	ltpFR	6	n/a	-1	BOOK	149	n/a	-1	n/a	n/a	n/a	n/a	n/a
2969128	FFR_REC_WORD	wordpools/wasnorm_wordpool.txt	LTP141	ltpFR	6	n/a	-1	PASSAGE	1019	n/a	-1	n/a	n/a	n/a	n/a	n/a
2972805	FFR_REC_WORD	wordpools/wasnorm_wordpool.txt	LTP141	ltpFR	6	n/a	0	TOOL	1480	n/a	0	n/a	n/a	n/a	n/a	n/a
2973827	FFR_REC_WORD	wordpools/wasnorm_wordpool.txt	LTP141	ltpFR	6	n/a	0	UTENSIL	1542	n/a	0	n/a	n/a	n/a	n/a	n/a
2976527	FFR_REC_WORD	wordpools/wasnorm_wordpool.txt	LTP141	ltpFR	6	n/a	0	ASPIRIN	47	n/a	0	n/a	n/a	n/a	n/a	n/a
2977898	FFR_REC_WORD	wordpools/wasnorm_wordpool.txt	LTP141	ltpFR	6	n/a	-1	NUCLEUS	961	n/a	-1	n/a	n/a	n/a	n/a	n/a
2980108	FFR_REC_WORD	wordpools/wasnorm_wordpool.txt	LTP141	ltpFR	6	n/a	0	NEUTRON	947	n/a	0	n/a	n/a	n/a	n/a	n/a
2985252	FFR_REC_WORD	wordpools/wasnorm_wordpool.txt	LTP141	ltpFR	6	n/a	0	TABLET	1427	n/a	1	n/a	n/a	n/a	n/a	n/a
2990166	FFR_REC_WORD	wordpools/wasnorm_wordpool.txt	LTP141	ltpFR	6	n/a	-1	WHEEL	1603	n/a	-1	n/a	n/a	n/a	n/a	n/a
2991467	FFR_REC_WORD	wordpools/wasnorm_wordpool.txt	LTP141	ltpFR	6	n/a	-1	LAUNDRY	803	n/a	-1	n/a	n/a	n/a	n/a	n/a
2992690	FFR_REC_WORD	wordpools/wasnorm_wordpool.txt	LTP141	ltpFR	6	n/a	-1	SHOWER	1296	n/a	-1	n/a	n/a	n/a	n/a	n/a
2994146	FFR_REC_WORD	wordpools/wasnorm_wordpool.txt	LTP141	ltpFR	6	n/a	-1	LOAF	835	n/a	-1	n/a	n/a	n/a	n/a	n/a
2995601	FFR_REC_WORD	wordpools/wasnorm_wordpool.txt	LTP141	ltpFR	6	n/a	-1	WHEAT	1602	n/a	-1	n/a	n/a	n/a	n/a	n/a
2997150	FFR_REC_WORD	wordpools/wasnorm_wordpool.txt	LTP141	ltpFR	6	n/a	-1	BLENDER	136	n/a	-1	n/a	n/a	n/a	n/a	n/a
2998656	FFR_REC_WORD	wordpools/wasnorm_wordpool.txt	LTP141	ltpFR	6	n/a	0	GIRL	637	n/a	1	n/a	n/a	n/a	n/a	n/a
3000093	FFR_REC_WORD	wordpools/wasnorm_wordpool.txt	LTP141	ltpFR	6	n/a	1	CLIMBER	323	n/a	1	n/a	n/a	n/a	n/a	n/a
3002807	FFR_REC_WORD	wordpools/wasnorm_wordpool.txt	LTP141	ltpFR	6	n/a	1	ELECTRICIAN	521	n/a	1	n/a	n/a	n/a	n/a	n/a
3005850	FFR_REC_WORD	wordpools/wasnorm_wordpool.txt	LTP141	ltpFR	6	n/a	1	EMPLOYER	532	n/a	1	n/a	n/a	n/a	n/a	n/a
3007895	FFR_REC_WORD	wordpools/wasnorm_wordpool.txt	LTP141	ltpFR	6	n/a	1	COLUMN	350	n/a	0	n/a	n/a	n/a	n/a	n/a
3010325	FFR_REC_WORD	wordpools/wasnorm_wordpool.txt	LTP141	ltpFR	6	n/a	n/a	ROAD	1196	n/a	n/a	n/a	n/a	n/a	n/a	n/a
3012150	FFR_REC_WORD	wordpools/wasnorm_wordpool.txt	LTP141	ltpFR	6	n/a	0	RANCH	1166	n/a	1	n/a	n/a	n/a	n/a	n/a
3013757	FFR_REC_WORD	wordpools/wasnorm_wordpool.txt	LTP141	ltpFR	6	n/a	0	HIGHWAY	707	n/a	1	n/a	n/a	n/a	n/a	n/a
3017184	FFR_REC_WORD	wordpools/wasnorm_wordpool.txt	LTP141	ltpFR	6	n/a	-1	CARAVAN	242	n/a	-1	n/a	n/a	n/a	n/a	n/a
3019454	FFR_REC_WORD	wordpools/wasnorm_wordpool.txt	LTP141	ltpFR	6	n/a	-1	OX	994	n/a	-1	n/a	n/a	n/a	n/a	n/a
3021794	FFR_REC_WORD	wordpools/wasnorm_wordpool.txt	LTP141	ltpFR	6	n/a	0	BALLERINA	74	n/a	1	n/a	n/a	n/a	n/a	n/a
3024453	FFR_REC_WORD	wordpools/wasnorm_wordpool.txt	LTP141	ltpFR	6	n/a	1	KING	777	n/a	1	n/a	n/a	n/a	n/a	n/a
3026109	FFR_REC_WORD	wordpools/wasnorm_wordpool.txt	LTP141	ltpFR	6	n/a	1	MOAT	903	n/a	0	n/a	n/a	n/a	n/a	n/a
3029975	FFR_REC_WORD	wordpools/wasnorm_wordpool.txt	LTP141	ltpFR	6	n/a	-1	ASH	44	n/a	-1	n/a	n/a	n/a	n/a	n/a
3036185	FFR_REC_WORD	wordpools/wasnorm_wordpool.txt	LTP141	ltpFR	6	n/a	0	SENATE	1267	n/a	1	n/a	n/a	n/a	n/a	n/a
3037642	FFR_REC_WORD	wordpools/wasnorm_wordpool.txt	LTP141	ltpFR	6	n/a	0	FOREST	593	n/a	1	n/a	n/a	n/a	n/a	n/a
3039358	FFR_REC_WORD	wordpools/wasnorm_wordpool.txt	LTP141	ltpFR	6	n/a	1	PEOPLE	1046	n/a	1	n/a	n/a	n/a	n/a	n/a
3041249	FFR_REC_WORD	wordpools/wasnorm_wordpool.txt	LTP141	ltpFR	6	n/a	n/a	HUMAN	726	n/a	n/a	n/a	n/a	n/a	n/a	n/a
3049455	FFR_REC_WORD	wordpools/wasnorm_wordpool.txt	LTP141	ltpFR	6	n/a	0	FIG	563	n/a	0	n/a	n/a	n/a	n/a	n/a
3061623	FFR_REC_WORD	wordpools/wasnorm_wordpool.txt	LTP141	ltpFR	6	n/a	0	LIME	823	n/a	0	n/a	n/a	n/a	n/a	n/a
3064147	FFR_REC_WORD	wordpools/wasnorm_wordpool.txt	LTP141	ltpFR	6	n/a	-1	CITRUS	313	n/a	-1	n/a	n/a	n/a	n/a	n/a
3067106	FFR_REC_WORD	wordpools/wasnorm_wordpool.txt	LTP141	ltpFR	6	n/a	-1	TART	1436	n/a	-1	n/a	n/a	n/a	n/a	n/a
3078550	FFR_REC_WORD	wordpools/wasnorm_wordpool.txt	LTP141	ltpFR	6	n/a	0	WRIST	1626	n/a	0	n/a	n/a	n/a	n/a	n/a
3080061	FFR_REC_WORD	wordpools/wasnorm_wordpool.txt	LTP141	ltpFR	6	n/a	0	PALM	1007	n/a	0	n/a	n/a	n/a	n/a	n/a
3081657	FFR_REC_WORD	wordpools/wasnorm_wordpool.txt	LTP141	ltpFR	6	n/a	0	KEYBOARD	774	n/a	1	n/a	n/a	n/a	n/a	n/a
3083214	FFR_REC_WORD	wordpools/wasnorm_wordpool.txt	LTP141	ltpFR	6	n/a	-1	BRACELET	163	n/a	-1	n/a	n/a	n/a	n/a	n/a
3090303	FFR_REC_WORD	wordpools/wasnorm_wordpool.txt	LTP141	ltpFR	6	n/a	1	WOMAN	1620	n/a	1	n/a	n/a	n/a	n/a	n/a
3098365	FFR_REC_WORD	wordpools/wasnorm_wordpool.txt	LTP141	ltpFR	6	n/a	-1	ARROW	40	n/a	-1	n/a	n/a	n/a	n/a	n/a
3102061	FFR_REC_WORD	wordpools/wasnorm_wordpool.txt	LTP141	ltpFR	6	n/a	-1	TORTOISE	1486	n/a	-1	n/a	n/a	n/a	n/a	n/a
3109075	FFR_REC_WORD	wordpools/wasnorm_wordpool.txt	LTP141	ltpFR	6	n/a	1	CHURCH	307	n/a	0	n/a	n/a	n/a	n/a	n/a
3111619	FFR_REC_WORD	wordpools/wasnorm_wordpool.txt	LTP141	ltpFR	6	n/a	1	PLAID	1080	n/a	0	n/a	n/a	n/a	n/a	n/a
3113410	FFR_REC_WORD	wordpools/wasnorm_wordpool.txt	LTP141	ltpFR	6	n/a	1	MICROWAVE	892	n/a	0	n/a	n/a	n/a	n/a	n/a
3114835	FFR_REC_WORD	wordpools/wasnorm_wordpool.txt	LTP141	ltpFR	6	n/a	1	SWEATER	1419	n/a	0	n/a	n/a	n/a	n/a	n/a
3117052	FFR_REC_WORD	wordpools/wasnorm_wordpool.txt	LTP141	ltpFR	6	n/a	1	SPONGE	1355	n/a	0	n/a	n/a	n/a	n/a	n/a
3125143	FFR_REC_WORD	wordpools/wasnorm_wordpool.txt	LTP141	ltpFR	6	n/a	0	STALLION	1369	n/a	1	n/a	n/a	n/a	n/a	n/a
3126979	FFR_REC_WORD	wordpools/wasnorm_wordpool.txt	LTP141	ltpFR	6	n/a	0	GRAVE	658	n/a	1	n/a	n/a	n/a	n/a	n/a
3128456	FFR_REC_WORD	wordpools/wasnorm_wordpool.txt	LTP141	ltpFR	6	n/a	0	TOMB	1477	n/a	1	n/a	n/a	n/a	n/a	n/a
3136413	FFR_REC_WORD	wordpools/wasnorm_wordpool.txt	LTP141	ltpFR	6	n/a	0	INSECT	740	n/a	0	n/a	n/a	n/a	n/a	n/a
3139701	FFR_REC_WORD	wordpools/wasnorm_wordpool.txt	LTP141	ltpFR	6	n/a	0	GRASSHOPPER	656	n/a	0	n/a	n/a	n/a	n/a	n/a
3147363	FFR_REC_WORD	wordpools/wasnorm_wordpool.txt	LTP141	ltpFR	6	n/a	0	SNOB	1335	n/a	1	n/a	n/a	n/a	n/a	n/a
3149039	FFR_REC_WORD	wordpools/wasnorm_wordpool.txt	LTP141	ltpFR	6	n/a	-1	SWIMMER	1420	n/a	-1	n/a	n/a	n/a	n/a	n/a
3196461	FFR_REC_WORD	wordpools/wasnorm_wordpool.txt	LTP141	ltpFR	6	n/a	1	SKELETON	1314	n/a	0	n/a	n/a	n/a	n/a	n/a
3197948	FFR_REC_WORD	wordpools/wasnorm_wordpool.txt	LTP141	ltpFR	6	n/a	1	FUNERAL	613	n/a	0	n/a	n/a	n/a	n/a	n/a
3206209	FFR_REC_WORD	wordpools/wasnorm_wordpool.txt	LTP141	ltpFR	6	n/a	n/a	FACE	547	n/a	n/a	n/a	n/a	n/a	n/a	n/a
3217644	FFR_REC_WORD	wordpools/wasnorm_wordpool.txt	LTP141	ltpFR	6	n/a	0	IRON	744	n/a	0	n/a	n/a	n/a	n/a	n/a
3245829	FFR_REC_WORD	wordpools/wasnorm_wordpool.txt	LTP141	ltpFR	6	n/a	0	KLEENEX	782	n/a	0	n/a	n/a	n/a	n/a	n/a
3250998	FFR_REC_WORD	wordpools/wasnorm_wordpool.txt	LTP141	ltpFR	6	n/a	0	MOUSE	925	n/a	1	n/a	n/a	n/a	n/a	n/a
3282141	REC_START	n/a	LTP141	ltpFR	6	1	n/a	n/a	n/a	n/a	n/a	n/a	n/a	n/a	n/a	n/a
3282173	RECOG_LURE	n/a	LTP141	ltpFR	6	1	n/a	POLITICIAN	1099	3	n/a	n/a	n/a	n/a	n/a	n/a
3284535	RECOG_RESP	n/a	LTP141	ltpFR	6	1	n/a	POLITICIAN	1099	n/a	n/a	n/a	n/a	n/a	n/a	n/a
3286093	RECOG_CONF	n/a	LTP141	ltpFR	6	1	n/a	POLITICIAN	1099	3	n/a	n/a	n/a	n/a	n/a	n/a
3287949	RECOG_TARGET	n/a	LTP141	ltpFR	6	1	-1	CEILING	265	5	-1	n/a	n/a	n/a	n/a	n/a
3288893	RECOG_RESP	n/a	LTP141	ltpFR	6	1	-1	CEILING	265	n/a	-1	n/a	n/a	n/a	n/a	n/a
3290077	RECOG_CONF	n/a	LTP141	ltpFR	6	1	-1	CEILING	265	5	-1	n/a	n/a	n/a	n/a	n/a
3291761	RECOG_TARGET	n/a	LTP141	ltpFR	6	1	0	FRAME	600	5	0	n/a	n/a	n/a	n/a	n/a
3292710	RECOG_RESP	n/a	LTP141	ltpFR	6	1	0	FRAME	600	n/a	0	n/a	n/a	n/a	n/a	n/a
3293904	RECOG_CONF	n/a	LTP141	ltpFR	6	1	0	FRAME	600	5	0	n/a	n/a	n/a	n/a	n/a
3295781	RECOG_LURE	n/a	LTP141	ltpFR	6	1	n/a	BOYFRIEND	162	5	n/a	n/a	n/a	n/a	n/a	n/a
3296633	RECOG_RESP	n/a	LTP141	ltpFR	6	1	n/a	BOYFRIEND	162	n/a	n/a	n/a	n/a	n/a	n/a	n/a
3297652	RECOG_CONF	n/a	LTP141	ltpFR	6	1	n/a	BOYFRIEND	162	5	n/a	n/a	n/a	n/a	n/a	n/a
3299345	RECOG_LURE	n/a	LTP141	ltpFR	6	1	n/a	GOWN	652	4	n/a	n/a	n/a	n/a	n/a	n/a
3300226	RECOG_RESP	n/a	LTP141	ltpFR	6	1	n/a	GOWN	652	n/a	n/a	n/a	n/a	n/a	n/a	n/a
3301179	RECOG_CONF	n/a	LTP141	ltpFR	6	1	n/a	GOWN	652	4	n/a	n/a	n/a	n/a	n/a	n/a
3302931	RECOG_TARGET	n/a	LTP141	ltpFR	6	1	1	BELLY	119	5	0	n/a	n/a	n/a	n/a	n/a
3303744	RECOG_RESP	n/a	LTP141	ltpFR	6	1	1	BELLY	119	n/a	0	n/a	n/a	n/a	n/a	n/a
3304796	RECOG_CONF	n/a	LTP141	ltpFR	6	1	1	BELLY	119	5	0	n/a	n/a	n/a	n/a	n/a
3306470	RECOG_LURE	n/a	LTP141	ltpFR	6	1	n/a	OCTOPUS	971	3	n/a	n/a	n/a	n/a	n/a	n/a
3307462	RECOG_RESP	n/a	LTP141	ltpFR	6	1	n/a	OCTOPUS	971	n/a	n/a	n/a	n/a	n/a	n/a	n/a
3308535	RECOG_CONF	n/a	LTP141	ltpFR	6	1	n/a	OCTOPUS	971	3	n/a	n/a	n/a	n/a	n/a	n/a
3310307	RECOG_TARGET	n/a	LTP141	ltpFR	6	1	1	CHAMPION	279	5	1	n/a	n/a	n/a	n/a	n/a
3311073	RECOG_RESP	n/a	LTP141	ltpFR	6	1	1	CHAMPION	279	n/a	1	n/a	n/a	n/a	n/a	n/a
3311958	RECOG_CONF	n/a	LTP141	ltpFR	6	1	1	CHAMPION	279	5	1	n/a	n/a	n/a	n/a	n/a
3313685	RECOG_LURE	n/a	LTP141	ltpFR	6	1	n/a	COWARD	394	3	n/a	n/a	n/a	n/a	n/a	n/a
3314621	RECOG_RESP	n/a	LTP141	ltpFR	6	1	n/a	COWARD	394	n/a	n/a	n/a	n/a	n/a	n/a	n/a
3315770	RECOG_CONF	n/a	LTP141	ltpFR	6	1	n/a	COWARD	394	3	n/a	n/a	n/a	n/a	n/a	n/a
3317432	RECOG_TARGET	n/a	LTP141	ltpFR	6	1	1	PLAID	1080	5	0	n/a	n/a	n/a	n/a	n/a
3318155	RECOG_RESP	n/a	LTP141	ltpFR	6	1	1	PLAID	1080	n/a	0	n/a	n/a	n/a	n/a	n/a
3319157	RECOG_CONF	n/a	LTP141	ltpFR	6	1	1	PLAID	1080	5	0	n/a	n/a	n/a	n/a	n/a
3320869	RECOG_TARGET	n/a	LTP141	ltpFR	6	1	-1	BOOK	149	5	-1	n/a	n/a	n/a	n/a	n/a
3321506	RECOG_RESP	n/a	LTP141	ltpFR	6	1	-1	BOOK	149	n/a	-1	n/a	n/a	n/a	n/a	n/a
3322431	RECOG_CONF	n/a	LTP141	ltpFR	6	1	-1	BOOK	149	5	-1	n/a	n/a	n/a	n/a	n/a
3324040	RECOG_TARGET	n/a	LTP141	ltpFR	6	1	0	NEST	945	5	0	n/a	n/a	n/a	n/a	n/a
3324760	RECOG_RESP	n/a	LTP141	ltpFR	6	1	0	NEST	945	n/a	0	n/a	n/a	n/a	n/a	n/a
3325666	RECOG_CONF	n/a	LTP141	ltpFR	6	1	0	NEST	945	5	0	n/a	n/a	n/a	n/a	n/a
3327354	RECOG_TARGET	n/a	LTP141	ltpFR	6	1	0	HOE	711	5	0	n/a	n/a	n/a	n/a	n/a
3328048	RECOG_RESP	n/a	LTP141	ltpFR	6	1	0	HOE	711	n/a	0	n/a	n/a	n/a	n/a	n/a
3328909	RECOG_RESP_VV	n/a	LTP141	ltpFR	6	1	0	HOE	711	5	0	n/a	n/a	n/a	n/a	n/a
3329752	RECOG_CONF	n/a	LTP141	ltpFR	6	1	0	HOE	711	5	0	n/a	n/a	n/a	n/a	n/a
3331665	RECOG_TARGET	n/a	LTP141	ltpFR	6	1	-1	AMBULANCE	19	5	-1	n/a	n/a	n/a	n/a	n/a
3332419	RECOG_RESP	n/a	LTP141	ltpFR	6	1	-1	AMBULANCE	19	n/a	-1	n/a	n/a	n/a	n/a	n/a
3333533	RECOG_CONF	n/a	LTP141	ltpFR	6	1	-1	AMBULANCE	19	5	-1	n/a	n/a	n/a	n/a	n/a
3335137	RECOG_TARGET	n/a	LTP141	ltpFR	6	1	0	SHELTER	1282	5	1	n/a	n/a	n/a	n/a	n/a
3335825	RECOG_RESP	n/a	LTP141	ltpFR	6	1	0	SHELTER	1282	n/a	1	n/a	n/a	n/a	n/a	n/a
3336873	RECOG_CONF	n/a	LTP141	ltpFR	6	1	0	SHELTER	1282	5	1	n/a	n/a	n/a	n/a	n/a
3338499	RECOG_LURE	n/a	LTP141	ltpFR	6	1	n/a	FRAGRANCE	599	4	n/a	n/a	n/a	n/a	n/a	n/a
3339321	RECOG_RESP	n/a	LTP141	ltpFR	6	1	n/a	FRAGRANCE	599	n/a	n/a	n/a	n/a	n/a	n/a	n/a
3340313	RECOG_CONF	n/a	LTP141	ltpFR	6	1	n/a	FRAGRANCE	599	4	n/a	n/a	n/a	n/a	n/a	n/a
3341986	RECOG_TARGET	n/a	LTP141	ltpFR	6	1	0	BEAST	108	3	1	n/a	n/a	n/a	n/a	n/a
3342734	RECOG_RESP	n/a	LTP141	ltpFR	6	1	0	BEAST	108	n/a	1	n/a	n/a	n/a	n/a	n/a
3344365	RECOG_CONF	n/a	LTP141	ltpFR	6	1	0	BEAST	108	3	1	n/a	n/a	n/a	n/a	n/a
3346015	RECOG_TARGET	n/a	LTP141	ltpFR	6	1	-1	LIGHTER	819	5	-1	n/a	n/a	n/a	n/a	n/a
3346701	RECOG_RESP	n/a	LTP141	ltpFR	6	1	-1	LIGHTER	819	n/a	-1	n/a	n/a	n/a	n/a	n/a
3347771	RECOG_CONF	n/a	LTP141	ltpFR	6	1	-1	LIGHTER	819	5	-1	n/a	n/a	n/a	n/a	n/a
3349370	RECOG_LURE	n/a	LTP141	ltpFR	6	1	n/a	VICTOR	1563	4	n/a	n/a	n/a	n/a	n/a	n/a
3350112	RECOG_RESP	n/a	LTP141	ltpFR	6	1	n/a	VICTOR	1563	n/a	n/a	n/a	n/a	n/a	n/a	n/a
3351189	RECOG_CONF	n/a	LTP141	ltpFR	6	1	n/a	VICTOR	1563	4	n/a	n/a	n/a	n/a	n/a	n/a
3352890	RECOG_LURE	n/a	LTP141	ltpFR	6	1	n/a	WAIST	1579	4	n/a	n/a	n/a	n/a	n/a	n/a
3354483	RECOG_RESP	n/a	LTP141	ltpFR	6	1	n/a	WAIST	1579	n/a	n/a	n/a	n/a	n/a	n/a	n/a
3355554	RECOG_CONF	n/a	LTP141	ltpFR	6	1	n/a	WAIST	1579	4	n/a	n/a	n/a	n/a	n/a	n/a
3363159	REC_START	n/a	LTP141	ltpFR	6	2	n/a	n/a	n/a	n/a	n/a	n/a	n/a	n/a	n/a	n/a
3363187	RECOG_TARGET	n/a	LTP141	ltpFR	6	2	0	LOLLIPOP	842	5	0	n/a	n/a	n/a	n/a	n/a
3364224	RECOG_RESP	n/a	LTP141	ltpFR	6	2	0	LOLLIPOP	842	n/a	0	n/a	n/a	n/a	n/a	n/a
3365488	RECOG_CONF	n/a	LTP141	ltpFR	6	2	0	LOLLIPOP	842	5	0	n/a	n/a	n/a	n/a	n/a
3367116	RECOG_LURE	n/a	LTP141	ltpFR	6	2	n/a	TRUMPET	1513	3	n/a	n/a	n/a	n/a	n/a	n/a
3368225	RECOG_RESP	n/a	LTP141	ltpFR	6	2	n/a	TRUMPET	1513	n/a	n/a	n/a	n/a	n/a	n/a	n/a
3369643	RECOG_CONF	n/a	LTP141	ltpFR	6	2	n/a	TRUMPET	1513	3	n/a	n/a	n/a	n/a	n/a	n/a
3371503	RECOG_TARGET	n/a	LTP141	ltpFR	6	2	1	ERASER	538	5	0	n/a	n/a	n/a	n/a	n/a
3372477	RECOG_RESP	n/a	LTP141	ltpFR	6	2	1	ERASER	538	n/a	0	n/a	n/a	n/a	n/a	n/a
3373558	RECOG_CONF	n/a	LTP141	ltpFR	6	2	1	ERASER	538	5	0	n/a	n/a	n/a	n/a	n/a
3375457	RECOG_LURE	n/a	LTP141	ltpFR	6	2	n/a	ICE	730	4	n/a	n/a	n/a	n/a	n/a	n/a
3376350	RECOG_RESP	n/a	LTP141	ltpFR	6	2	n/a	ICE	730	n/a	n/a	n/a	n/a	n/a	n/a	n/a
3377367	RECOG_CONF	n/a	LTP141	ltpFR	6	2	n/a	ICE	730	4	n/a	n/a	n/a	n/a	n/a	n/a
3379060	RECOG_LURE	n/a	LTP141	ltpFR	6	2	n/a	CUFF	423	5	n/a	n/a	n/a	n/a	n/a	n/a
3379916	RECOG_RESP	n/a	LTP141	ltpFR	6	2	n/a	CUFF	423	n/a	n/a	n/a	n/a	n/a	n/a	n/a
3380913	RECOG_CONF	n/a	LTP141	ltpFR	6	2	n/a	CUFF	423	5	n/a	n/a	n/a	n/a	n/a	n/a
3382572	RECOG_TARGET	n/a	LTP141	ltpFR	6	2	-1	SHAMPOO	1274	5	-1	n/a	n/a	n/a	n/a	n/a
3383304	RECOG_RESP	n/a	LTP141	ltpFR	6	2	-1	SHAMPOO	1274	n/a	-1	n/a	n/a	n/a	n/a	n/a
3384253	RECOG_CONF	n/a	LTP141	ltpFR	6	2	-1	SHAMPOO	1274	5	-1	n/a	n/a	n/a	n/a	n/a
3385993	RECOG_LURE	n/a	LTP141	ltpFR	6	2	n/a	ANCESTOR	20	4	n/a	n/a	n/a	n/a	n/a	n/a
3387289	RECOG_RESP	n/a	LTP141	ltpFR	6	2	n/a	ANCESTOR	20	n/a	n/a	n/a	n/a	n/a	n/a	n/a
3388316	RECOG_CONF	n/a	LTP141	ltpFR	6	2	n/a	ANCESTOR	20	4	n/a	n/a	n/a	n/a	n/a	n/a
3389922	RECOG_LURE	n/a	LTP141	ltpFR	6	2	n/a	APE	31	3	n/a	n/a	n/a	n/a	n/a	n/a
3390654	RECOG_RESP	n/a	LTP141	ltpFR	6	2	n/a	APE	31	n/a	n/a	n/a	n/a	n/a	n/a	n/a
3391765	RECOG_CONF	n/a	LTP141	ltpFR	6	2	n/a	APE	31	3	n/a	n/a	n/a	n/a	n/a	n/a
3393452	RECOG_TARGET	n/a	LTP141	ltpFR	6	2	1	CHART	282	4	0	n/a	n/a	n/a	n/a	n/a
3395166	RECOG_RESP	n/a	LTP141	ltpFR	6	2	1	CHART	282	n/a	0	n/a	n/a	n/a	n/a	n/a
3396294	RECOG_CONF	n/a	LTP141	ltpFR	6	2	1	CHART	282	4	0	n/a	n/a	n/a	n/a	n/a
3397930	RECOG_TARGET	n/a	LTP141	ltpFR	6	2	0	SUPERMARKET	1409	5	1	n/a	n/a	n/a	n/a	n/a
3398816	RECOG_RESP	n/a	LTP141	ltpFR	6	2	0	SUPERMARKET	1409	n/a	1	n/a	n/a	n/a	n/a	n/a
3399853	RECOG_CONF	n/a	LTP141	ltpFR	6	2	0	SUPERMARKET	1409	5	1	n/a	n/a	n/a	n/a	n/a
3401443	RECOG_TARGET	n/a	LTP141	ltpFR	6	2	1	COLESLAW	344	5	0	n/a	n/a	n/a	n/a	n/a
3402106	RECOG_RESP	n/a	LTP141	ltpFR	6	2	1	COLESLAW	344	n/a	0	n/a	n/a	n/a	n/a	n/a
3403101	RECOG_CONF	n/a	LTP141	ltpFR	6	2	1	COLESLAW	344	5	0	n/a	n/a	n/a	n/a	n/a
3404747	RECOG_LURE	n/a	LTP141	ltpFR	6	2	n/a	LUMBER	848	3	n/a	n/a	n/a	n/a	n/a	n/a
3405556	RECOG_RESP	n/a	LTP141	ltpFR	6	2	n/a	LUMBER	848	n/a	n/a	n/a	n/a	n/a	n/a	n/a
3406547	RECOG_CONF	n/a	LTP141	ltpFR	6	2	n/a	LUMBER	848	3	n/a	n/a	n/a	n/a	n/a	n/a
3408252	RECOG_LURE	n/a	LTP141	ltpFR	6	2	n/a	SCARF	1246	5	n/a	n/a	n/a	n/a	n/a	n/a
3409143	RECOG_RESP	n/a	LTP141	ltpFR	6	2	n/a	SCARF	1246	n/a	n/a	n/a	n/a	n/a	n/a	n/a
3410181	RECOG_CONF	n/a	LTP141	ltpFR	6	2	n/a	SCARF	1246	5	n/a	n/a	n/a	n/a	n/a	n/a
3412047	RECOG_LURE	n/a	LTP141	ltpFR	6	2	n/a	BEAVER	109	4	n/a	n/a	n/a	n/a	n/a	n/a
3413089	RECOG_RESP	n/a	LTP141	ltpFR	6	2	n/a	BEAVER	109	n/a	n/a	n/a	n/a	n/a	n/a	n/a
3415003	RECOG_CONF	n/a	LTP141	ltpFR	6	2	n/a	BEAVER	109	4	n/a	n/a	n/a	n/a	n/a	n/a
3416724	RECOG_TARGET	n/a	LTP141	ltpFR	6	2	1	CHEF	290	5	1	n/a	n/a	n/a	n/a	n/a
3417444	RECOG_RESP	n/a	LTP141	ltpFR	6	2	1	CHEF	290	n/a	1	n/a	n/a	n/a	n/a	n/a
3418562	RECOG_CONF	n/a	LTP141	ltpFR	6	2	1	CHEF	290	5	1	n/a	n/a	n/a	n/a	n/a
3420121	RECOG_LURE	n/a	LTP141	ltpFR	6	2	n/a	PROFESSIONAL	1130	4	n/a	n/a	n/a	n/a	n/a	n/a
3421535	RECOG_RESP	n/a	LTP141	ltpFR	6	2	n/a	PROFESSIONAL	1130	n/a	n/a	n/a	n/a	n/a	n/a	n/a
3422710	RECOG_CONF	n/a	LTP141	ltpFR	6	2	n/a	PROFESSIONAL	1130	4	n/a	n/a	n/a	n/a	n/a	n/a
3424292	RECOG_TARGET	n/a	LTP141	ltpFR	6	2	0	WATERFALL	1595	5	1	n/a	n/a	n/a	n/a	n/a
3424970	RECOG_RESP	n/a	LTP141	ltpFR	6	2	0	WATERFALL	1595	n/a	1	n/a	n/a	n/a	n/a	n/a
3426014	RECOG_CONF	n/a	LTP141	ltpFR	6	2	0	WATERFALL	1595	5	1	n/a	n/a	n/a	n/a	n/a
3427645	RECOG_LURE	n/a	LTP141	ltpFR	6	2	n/a	RICE	1190	3	n/a	n/a	n/a	n/a	n/a	n/a
3428367	RECOG_RESP	n/a	LTP141	ltpFR	6	2	n/a	RICE	1190	n/a	n/a	n/a	n/a	n/a	n/a	n/a
3430222	RECOG_CONF	n/a	LTP141	ltpFR	6	2	n/a	RICE	1190	3	n/a	n/a	n/a	n/a	n/a	n/a
3431840	RECOG_LURE	n/a	LTP141	ltpFR	6	2	n/a	SADDLE	1221	5	n/a	n/a	n/a	n/a	n/a	n/a
3432646	RECOG_RESP	n/a	LTP141	ltpFR	6	2	n/a	SADDLE	1221	n/a	n/a	n/a	n/a	n/a	n/a	n/a
3433756	RECOG_CONF	n/a	LTP141	ltpFR	6	2	n/a	SADDLE	1221	5	n/a	n/a	n/a	n/a	n/a	n/a
3435379	RECOG_LURE	n/a	LTP141	ltpFR	6	2	n/a	DORM	488	5	n/a	n/a	n/a	n/a	n/a	n/a
3437722	RECOG_RESP	n/a	LTP141	ltpFR	6	2	n/a	DORM	488	n/a	n/a	n/a	n/a	n/a	n/a	n/a
3438772	RECOG_CONF	n/a	LTP141	ltpFR	6	2	n/a	DORM	488	5	n/a	n/a	n/a	n/a	n/a	n/a
3442860	REC_START	n/a	LTP141	ltpFR	6	3	n/a	n/a	n/a	n/a	n/a	n/a	n/a	n/a	n/a	n/a
3442886	RECOG_LURE	n/a	LTP141	ltpFR	6	3	n/a	QUARTER	1148	4	n/a	n/a	n/a	n/a	n/a	n/a
3443794	RECOG_RESP	n/a	LTP141	ltpFR	6	3	n/a	QUARTER	1148	n/a	n/a	n/a	n/a	n/a	n/a	n/a
3444840	RECOG_CONF	n/a	LTP141	ltpFR	6	3	n/a	QUARTER	1148	4	n/a	n/a	n/a	n/a	n/a	n/a
3446424	RECOG_TARGET	n/a	LTP141	ltpFR	6	3	0	QUAIL	1147	4	0	n/a	n/a	n/a	n/a	n/a
3447140	RECOG_RESP	n/a	LTP141	ltpFR	6	3	0	QUAIL	1147	n/a	0	n/a	n/a	n/a	n/a	n/a
3448202	RECOG_CONF	n/a	LTP141	ltpFR	6	3	0	QUAIL	1147	4	0	n/a	n/a	n/a	n/a	n/a
3449853	RECOG_TARGET	n/a	LTP141	ltpFR	6	3	-1	CREVICE	405	5	-1	n/a	n/a	n/a	n/a	n/a
3450688	RECOG_RESP	n/a	LTP141	ltpFR	6	3	-1	CREVICE	405	n/a	-1	n/a	n/a	n/a	n/a	n/a
3451734	RECOG_CONF	n/a	LTP141	ltpFR	6	3	-1	CREVICE	405	5	-1	n/a	n/a	n/a	n/a	n/a
3453391	RECOG_TARGET	n/a	LTP141	ltpFR	6	3	0	BOWL	158	3	1	n/a	n/a	n/a	n/a	n/a
3454079	RECOG_RESP	n/a	LTP141	ltpFR	6	3	0	BOWL	158	n/a	1	n/a	n/a	n/a	n/a	n/a
3456818	RECOG_CONF	n/a	LTP141	ltpFR	6	3	0	BOWL	158	3	1	n/a	n/a	n/a	n/a	n/a
3458518	RECOG_TARGET	n/a	LTP141	ltpFR	6	3	1	SPOOL	1356	n/a	0	n/a	n/a	n/a	n/a	n/a
3459700	RECOG_RESP	n/a	LTP141	ltpFR	6	3	1	SPOOL	1356	n/a	0	n/a	n/a	n/a	n/a	n/a
3462389	RECOG_TARGET	n/a	LTP141	ltpFR	6	3	-1	PLUMBER	1091	5	-1	n/a	n/a	n/a	n/a	n/a
3463059	RECOG_RESP	n/a	LTP141	ltpFR	6	3	-1	PLUMBER	1091	n/a	-1	n/a	n/a	n/a	n/a	n/a
3463962	RECOG_CONF	n/a	LTP141	ltpFR	6	3	-1	PLUMBER	1091	5	-1	n/a	n/a	n/a	n/a	n/a
3465584	RECOG_TARGET	n/a	LTP141	ltpFR	6	3	0	COURT	391	4	1	n/a	n/a	n/a	n/a	n/a
3466400	RECOG_RESP	n/a	LTP141	ltpFR	6	3	0	COURT	391	n/a	1	n/a	n/a	n/a	n/a	n/a
3467425	RECOG_CONF	n/a	LTP141	ltpFR	6	3	0	COURT	391	4	1	n/a	n/a	n/a	n/a	n/a
3469039	RECOG_LURE	n/a	LTP141	ltpFR	6	3	n/a	CLOSET	326	4	n/a	n/a	n/a	n/a	n/a	n/a
3469897	RECOG_RESP	n/a	LTP141	ltpFR	6	3	n/a	CLOSET	326	n/a	n/a	n/a	n/a	n/a	n/a	n/a
3470911	RECOG_CONF	n/a	LTP141	ltpFR	6	3	n/a	CLOSET	326	4	n/a	n/a	n/a	n/a	n/a	n/a
3472494	RECOG_TARGET	n/a	LTP141	ltpFR	6	3	0	GRAVE	658	5	1	n/a	n/a	n/a	n/a	n/a
3473116	RECOG_RESP	n/a	LTP141	ltpFR	6	3	0	GRAVE	658	n/a	1	n/a	n/a	n/a	n/a	n/a
3474116	RECOG_CONF	n/a	LTP141	ltpFR	6	3	0	GRAVE	658	5	1	n/a	n/a	n/a	n/a	n/a
3475714	RECOG_TARGET	n/a	LTP141	ltpFR	6	3	-1	WHEEL	1603	5	-1	n/a	n/a	n/a	n/a	n/a
3476304	RECOG_RESP	n/a	LTP141	ltpFR	6	3	-1	WHEEL	1603	n/a	-1	n/a	n/a	n/a	n/a	n/a
3477246	RECOG_CONF	n/a	LTP141	ltpFR	6	3	-1	WHEEL	1603	5	-1	n/a	n/a	n/a	n/a	n/a
3478902	RECOG_LURE	n/a	LTP141	ltpFR	6	3	n/a	DIAPER	459	4	n/a	n/a	n/a	n/a	n/a	n/a
3479501	RECOG_RESP	n/a	LTP141	ltpFR	6	3	n/a	DIAPER	459	n/a	n/a	n/a	n/a	n/a	n/a	n/a
3480454	RECOG_CONF	n/a	LTP141	ltpFR	6	3	n/a	DIAPER	459	4	n/a	n/a	n/a	n/a	n/a	n/a
3482040	RECOG_LURE	n/a	LTP141	ltpFR	6	3	n/a	ALBUM	14	4	n/a	n/a	n/a	n/a	n/a	n/a
3482768	RECOG_RESP	n/a	LTP141	ltpFR	6	3	n/a	ALBUM	14	n/a	n/a	n/a	n/a	n/a	n/a	n/a
3483776	RECOG_CONF	n/a	LTP141	ltpFR	6	3	n/a	ALBUM	14	4	n/a	n/a	n/a	n/a	n/a	n/a
3485363	RECOG_LURE	n/a	LTP141	ltpFR	6	3	n/a	CLOTHES	327	5	n/a	n/a	n/a	n/a	n/a	n/a
3486650	RECOG_RESP	n/a	LTP141	ltpFR	6	3	n/a	CLOTHES	327	n/a	n/a	n/a	n/a	n/a	n/a	n/a
3487585	RECOG_CONF	n/a	LTP141	ltpFR	6	3	n/a	CLOTHES	327	5	n/a	n/a	n/a	n/a	n/a	n/a
3489200	RECOG_TARGET	n/a	LTP141	ltpFR	6	3	0	NEEDLE	941	5	0	n/a	n/a	n/a	n/a	n/a
3490306	RECOG_RESP	n/a	LTP141	ltpFR	6	3	0	NEEDLE	941	n/a	0	n/a	n/a	n/a	n/a	n/a
3491271	RECOG_CONF	n/a	LTP141	ltpFR	6	3	0	NEEDLE	941	5	0	n/a	n/a	n/a	n/a	n/a
3492861	RECOG_TARGET	n/a	LTP141	ltpFR	6	3	0	LITERATURE	831	5	1	n/a	n/a	n/a	n/a	n/a
3493566	RECOG_RESP	n/a	LTP141	ltpFR	6	3	0	LITERATURE	831	n/a	1	n/a	n/a	n/a	n/a	n/a
3494643	RECOG_CONF	n/a	LTP141	ltpFR	6	3	0	LITERATURE	831	5	1	n/a	n/a	n/a	n/a	n/a
3496466	RECOG_TARGET	n/a	LTP141	ltpFR	6	3	-1	WOLF	1619	5	-1	n/a	n/a	n/a	n/a	n/a
3497747	RECOG_RESP	n/a	LTP141	ltpFR	6	3	-1	WOLF	1619	n/a	-1	n/a	n/a	n/a	n/a	n/a
3498746	RECOG_CONF	n/a	LTP141	ltpFR	6	3	-1	WOLF	1619	5	-1	n/a	n/a	n/a	n/a	n/a
3500379	RECOG_TARGET	n/a	LTP141	ltpFR	6	3	-1	MATTRESS	879	3	-1	n/a	n/a	n/a	n/a	n/a
3501258	RECOG_RESP_VV	n/a	LTP141	ltpFR	6	3	-1	MATTRESS	879	n/a	-1	n/a	n/a	n/a	n/a	n/a
3502633	RECOG_RESP	n/a	LTP141	ltpFR	6	3	-1	MATTRESS	879	n/a	-1	n/a	n/a	n/a	n/a	n/a
3503910	RECOG_CONF	n/a	LTP141	ltpFR	6	3	-1	MATTRESS	879	3	-1	n/a	n/a	n/a	n/a	n/a
3505638	RECOG_LURE	n/a	LTP141	ltpFR	6	3	n/a	CREEK	404	5	n/a	n/a	n/a	n/a	n/a	n/a
3506615	RECOG_RESP	n/a	LTP141	ltpFR	6	3	n/a	CREEK	404	n/a	n/a	n/a	n/a	n/a	n/a	n/a
3507897	RECOG_CONF	n/a	LTP141	ltpFR	6	3	n/a	CREEK	404	5	n/a	n/a	n/a	n/a	n/a	n/a
3509592	RECOG_TARGET	n/a	LTP141	ltpFR	6	3	0	MAPLE	866	5	1	n/a	n/a	n/a	n/a	n/a
3510304	RECOG_RESP	n/a	LTP141	ltpFR	6	3	0	MAPLE	866	n/a	1	n/a	n/a	n/a	n/a	n/a
3511312	RECOG_CONF	n/a	LTP141	ltpFR	6	3	0	MAPLE	866	5	1	n/a	n/a	n/a	n/a	n/a
3512863	RECOG_TARGET	n/a	LTP141	ltpFR	6	3	-1	POTTERY	1116	5	-1	n/a	n/a	n/a	n/a	n/a
3513485	RECOG_RESP	n/a	LTP141	ltpFR	6	3	-1	POTTERY	1116	n/a	-1	n/a	n/a	n/a	n/a	n/a
3514451	RECOG_CONF	n/a	LTP141	ltpFR	6	3	-1	POTTERY	1116	5	-1	n/a	n/a	n/a	n/a	n/a
3517812	REC_START	n/a	LTP141	ltpFR	6	4	n/a	n/a	n/a	n/a	n/a	n/a	n/a	n/a	n/a	n/a
3517841	RECOG_TARGET	n/a	LTP141	ltpFR	6	4	1	PASSENGER	1020	5	1	n/a	n/a	n/a	n/a	n/a
3518559	RECOG_RESP	n/a	LTP141	ltpFR	6	4	1	PASSENGER	1020	n/a	1	n/a	n/a	n/a	n/a	n/a
3519581	RECOG_CONF	n/a	LTP141	ltpFR	6	4	1	PASSENGER	1020	5	1	n/a	n/a	n/a	n/a	n/a
3521196	RECOG_LURE	n/a	LTP141	ltpFR	6	4	n/a	BOULDER	155	4	n/a	n/a	n/a	n/a	n/a	n/a
3521936	RECOG_RESP	n/a	LTP141	ltpFR	6	4	n/a	BOULDER	155	n/a	n/a	n/a	n/a	n/a	n/a	n/a
3522885	RECOG_CONF	n/a	LTP141	ltpFR	6	4	n/a	BOULDER	155	4	n/a	n/a	n/a	n/a	n/a	n/a
3524451	RECOG_TARGET	n/a	LTP141	ltpFR	6	4	-1	UNDERWEAR	1537	5	-1	n/a	n/a	n/a	n/a	n/a
3525122	RECOG_RESP	n/a	LTP141	ltpFR	6	4	-1	UNDERWEAR	1537	n/a	-1	n/a	n/a	n/a	n/a	n/a
3526237	RECOG_CONF	n/a	LTP141	ltpFR	6	4	-1	UNDERWEAR	1537	5	-1	n/a	n/a	n/a	n/a	n/a
3527837	RECOG_LURE	n/a	LTP141	ltpFR	6	4	n/a	PIGEON	1065	4	n/a	n/a	n/a	n/a	n/a	n/a
3530681	RECOG_RESP	n/a	LTP141	ltpFR	6	4	n/a	PIGEON	1065	n/a	n/a	n/a	n/a	n/a	n/a	n/a
3531731	RECOG_CONF	n/a	LTP141	ltpFR	6	4	n/a	PIGEON	1065	4	n/a	n/a	n/a	n/a	n/a	n/a
3533639	RECOG_LURE	n/a	LTP141	ltpFR	6	4	n/a	MAP	865	4	n/a	n/a	n/a	n/a	n/a	n/a
3534830	RECOG_RESP	n/a	LTP141	ltpFR	6	4	n/a	MAP	865	n/a	n/a	n/a	n/a	n/a	n/a	n/a
3535845	RECOG_CONF	n/a	LTP141	ltpFR	6	4	n/a	MAP	865	4	n/a	n/a	n/a	n/a	n/a	n/a
3537510	RECOG_LURE	n/a	LTP141	ltpFR	6	4	n/a	BANQUET	86	4	n/a	n/a	n/a	n/a	n/a	n/a
3538480	RECOG_RESP	n/a	LTP141	ltpFR	6	4	n/a	BANQUET	86	n/a	n/a	n/a	n/a	n/a	n/a	n/a
3539587	RECOG_CONF	n/a	LTP141	ltpFR	6	4	n/a	BANQUET	86	4	n/a	n/a	n/a	n/a	n/a	n/a
3541140	RECOG_TARGET	n/a	LTP141	ltpFR	6	4	-1	SQUID	1361	4	-1	n/a	n/a	n/a	n/a	n/a
3541919	RECOG_RESP	n/a	LTP141	ltpFR	6	4	-1	SQUID	1361	n/a	-1	n/a	n/a	n/a	n/a	n/a
3543029	RECOG_CONF	n/a	LTP141	ltpFR	6	4	-1	SQUID	1361	4	-1	n/a	n/a	n/a	n/a	n/a
3544576	RECOG_TARGET	n/a	LTP141	ltpFR	6	4	1	TOOTHBRUSH	1482	5	0	n/a	n/a	n/a	n/a	n/a
3545517	RECOG_RESP	n/a	LTP141	ltpFR	6	4	1	TOOTHBRUSH	1482	n/a	0	n/a	n/a	n/a	n/a	n/a
3546550	RECOG_CONF	n/a	LTP141	ltpFR	6	4	1	TOOTHBRUSH	1482	5	0	n/a	n/a	n/a	n/a	n/a
3548231	RECOG_TARGET	n/a	LTP141	ltpFR	6	4	1	BAG	69	4	0	n/a	n/a	n/a	n/a	n/a
3551728	RECOG_RESP	n/a	LTP141	ltpFR	6	4	1	BAG	69	n/a	0	n/a	n/a	n/a	n/a	n/a
3552745	RECOG_CONF	n/a	LTP141	ltpFR	6	4	1	BAG	69	4	0	n/a	n/a	n/a	n/a	n/a
3554424	RECOG_TARGET	n/a	LTP141	ltpFR	6	4	1	CREATURE	403	4	1	n/a	n/a	n/a	n/a	n/a
3555630	RECOG_RESP	n/a	LTP141	ltpFR	6	4	1	CREATURE	403	n/a	1	n/a	n/a	n/a	n/a	n/a
3556594	RECOG_CONF	n/a	LTP141	ltpFR	6	4	1	CREATURE	403	4	1	n/a	n/a	n/a	n/a	n/a
3558245	RECOG_TARGET	n/a	LTP141	ltpFR	6	4	-1	MILK	895	4	-1	n/a	n/a	n/a	n/a	n/a
3558986	RECOG_RESP	n/a	LTP141	ltpFR	6	4	-1	MILK	895	n/a	-1	n/a	n/a	n/a	n/a	n/a
3559888	RECOG_CONF	n/a	LTP141	ltpFR	6	4	-1	MILK	895	4	-1	n/a	n/a	n/a	n/a	n/a
3561441	RECOG_LURE	n/a	LTP141	ltpFR	6	4	n/a	SPACE	1345	4	n/a	n/a	n/a	n/a	n/a	n/a
3562161	RECOG_RESP	n/a	LTP141	ltpFR	6	4	n/a	SPACE	1345	n/a	n/a	n/a	n/a	n/a	n/a	n/a
3563201	RECOG_CONF	n/a	LTP141	ltpFR	6	4	n/a	SPACE	1345	4	n/a	n/a	n/a	n/a	n/a	n/a
3564745	RECOG_LURE	n/a	LTP141	ltpFR	6	4	n/a	EXPERT	543	3	n/a	n/a	n/a	n/a	n/a	n/a
3565793	RECOG_RESP	n/a	LTP141	ltpFR	6	4	n/a	EXPERT	543	n/a	n/a	n/a	n/a	n/a	n/a	n/a
3566944	RECOG_CONF	n/a	LTP141	ltpFR	6	4	n/a	EXPERT	543	3	n/a	n/a	n/a	n/a	n/a	n/a
3568425	RECOG_TARGET	n/a	LTP141	ltpFR	6	4	0	RACK	1154	5	1	n/a	n/a	n/a	n/a	n/a
3569116	RECOG_RESP	n/a	LTP141	ltpFR	6	4	0	RACK	1154	n/a	1	n/a	n/a	n/a	n/a	n/a
3569958	RECOG_CONF	n/a	LTP141	ltpFR	6	4	0	RACK	1154	5	1	n/a	n/a	n/a	n/a	n/a
3571421	RECOG_TARGET	n/a	LTP141	ltpFR	6	4	0	GRASSHOPPER	656	5	0	n/a	n/a	n/a	n/a	n/a
3572171	RECOG_RESP	n/a	LTP141	ltpFR	6	4	0	GRASSHOPPER	656	n/a	0	n/a	n/a	n/a	n/a	n/a
3573104	RECOG_CONF	n/a	LTP141	ltpFR	6	4	0	GRASSHOPPER	656	5	0	n/a	n/a	n/a	n/a	n/a
3574542	RECOG_TARGET	n/a	LTP141	ltpFR	6	4	1	SNORKEL	1336	4	0	n/a	n/a	n/a	n/a	n/a
3575480	RECOG_RESP	n/a	LTP141	ltpFR	6	4	1	SNORKEL	1336	n/a	0	n/a	n/a	n/a	n/a	n/a
3576400	RECOG_CONF	n/a	LTP141	ltpFR	6	4	1	SNORKEL	1336	4	0	n/a	n/a	n/a	n/a	n/a
3577954	RECOG_TARGET	n/a	LTP141	ltpFR	6	4	1	FUR	615	5	0	n/a	n/a	n/a	n/a	n/a
3578930	RECOG_RESP	n/a	LTP141	ltpFR	6	4	1	FUR	615	n/a	0	n/a	n/a	n/a	n/a	n/a
3579975	RECOG_CONF	n/a	LTP141	ltpFR	6	4	1	FUR	615	5	0	n/a	n/a	n/a	n/a	n/a
3581542	RECOG_LURE	n/a	LTP141	ltpFR	6	4	n/a	CHISEL	305	3	n/a	n/a	n/a	n/a	n/a	n/a
3582912	RECOG_RESP	n/a	LTP141	ltpFR	6	4	n/a	CHISEL	305	n/a	n/a	n/a	n/a	n/a	n/a	n/a
3584002	RECOG_CONF	n/a	LTP141	ltpFR	6	4	n/a	CHISEL	305	3	n/a	n/a	n/a	n/a	n/a	n/a
3585529	RECOG_TARGET	n/a	LTP141	ltpFR	6	4	1	TWINE	1529	5	0	n/a	n/a	n/a	n/a	n/a
3586354	RECOG_RESP	n/a	LTP141	ltpFR	6	4	1	TWINE	1529	n/a	0	n/a	n/a	n/a	n/a	n/a
3587706	RECOG_CONF	n/a	LTP141	ltpFR	6	4	1	TWINE	1529	5	0	n/a	n/a	n/a	n/a	n/a
3589334	RECOG_TARGET	n/a	LTP141	ltpFR	6	4	1	INTESTINE	742	5	0	n/a	n/a	n/a	n/a	n/a
3590240	RECOG_RESP	n/a	LTP141	ltpFR	6	4	1	INTESTINE	742	n/a	0	n/a	n/a	n/a	n/a	n/a
3591210	RECOG_CONF	n/a	LTP141	ltpFR	6	4	1	INTESTINE	742	5	0	n/a	n/a	n/a	n/a	n/a
3594261	REC_START	n/a	LTP141	ltpFR	6	5	n/a	n/a	n/a	n/a	n/a	n/a	n/a	n/a	n/a	n/a
3594286	RECOG_LURE	n/a	LTP141	ltpFR	6	5	n/a	DANDRUFF	439	4	n/a	n/a	n/a	n/a	n/a	n/a
3595166	RECOG_RESP	n/a	LTP141	ltpFR	6	5	n/a	DANDRUFF	439	n/a	n/a	n/a	n/a	n/a	n/a	n/a
3596091	RECOG_CONF	n/a	LTP141	ltpFR	6	5	n/a	DANDRUFF	439	4	n/a	n/a	n/a	n/a	n/a	n/a
3597606	RECOG_TARGET	n/a	LTP141	ltpFR	6	5	1	SKILLET	1317	4	1	n/a	n/a	n/a	n/a	n/a
3598604	RECOG_RESP	n/a	LTP141	ltpFR	6	5	1	SKILLET	1317	n/a	1	n/a	n/a	n/a	n/a	n/a
3599678	RECOG_CONF	n/a	LTP141	ltpFR	6	5	1	SKILLET	1317	4	1	n/a	n/a	n/a	n/a	n/a
3601228	RECOG_LURE	n/a	LTP141	ltpFR	6	5	n/a	MANSION	864	5	n/a	n/a	n/a	n/a	n/a	n/a
3601929	RECOG_RESP	n/a	LTP141	ltpFR	6	5	n/a	MANSION	864	n/a	n/a	n/a	n/a	n/a	n/a	n/a
3602801	RECOG_CONF	n/a	LTP141	ltpFR	6	5	n/a	MANSION	864	5	n/a	n/a	n/a	n/a	n/a	n/a
3604283	RECOG_TARGET	n/a	LTP141	ltpFR	6	5	0	NEPTUNE	943	5	1	n/a	n/a	n/a	n/a	n/a
3604952	RECOG_RESP	n/a	LTP141	ltpFR	6	5	0	NEPTUNE	943	n/a	1	n/a	n/a	n/a	n/a	n/a
3605839	RECOG_CONF	n/a	LTP141	ltpFR	6	5	0	NEPTUNE	943	5	1	n/a	n/a	n/a	n/a	n/a
3607438	RECOG_LURE	n/a	LTP141	ltpFR	6	5	n/a	BANJO	82	3	n/a	n/a	n/a	n/a	n/a	n/a
3608225	RECOG_RESP	n/a	LTP141	ltpFR	6	5	n/a	BANJO	82	n/a	n/a	n/a	n/a	n/a	n/a	n/a
3609230	RECOG_CONF	n/a	LTP141	ltpFR	6	5	n/a	BANJO	82	3	n/a	n/a	n/a	n/a	n/a	n/a
3610825	RECOG_LURE	n/a	LTP141	ltpFR	6	5	n/a	SAGE	1222	4	n/a	n/a	n/a	n/a	n/a	n/a
3611471	RECOG_RESP	n/a	LTP141	ltpFR	6	5	n/a	SAGE	1222	n/a	n/a	n/a	n/a	n/a	n/a	n/a
3612424	RECOG_CONF	n/a	LTP141	ltpFR	6	5	n/a	SAGE	1222	4	n/a	n/a	n/a	n/a	n/a	n/a
3613988	RECOG_LURE	n/a	LTP141	ltpFR	6	5	n/a	OUTDOORS	987	4	n/a	n/a	n/a	n/a	n/a	n/a
3614662	RECOG_RESP	n/a	LTP141	ltpFR	6	5	n/a	OUTDOORS	987	n/a	n/a	n/a	n/a	n/a	n/a	n/a
3615637	RECOG_CONF	n/a	LTP141	ltpFR	6	5	n/a	OUTDOORS	987	4	n/a	n/a	n/a	n/a	n/a	n/a
3617243	RECOG_LURE	n/a	LTP141	ltpFR	6	5	n/a	PAN	1008	3	n/a	n/a	n/a	n/a	n/a	n/a
3617757	RECOG_RESP	n/a	LTP141	ltpFR	6	5	n/a	PAN	1008	n/a	n/a	n/a	n/a	n/a	n/a	n/a
3618947	RECOG_CONF	n/a	LTP141	ltpFR	6	5	n/a	PAN	1008	3	n/a	n/a	n/a	n/a	n/a	n/a
3620473	RECOG_TARGET	n/a	LTP141	ltpFR	6	5	-1	STRAW	1390	3	-1	n/a	n/a	n/a	n/a	n/a
3622022	RECOG_RESP	n/a	LTP141	ltpFR	6	5	-1	STRAW	1390	n/a	-1	n/a	n/a	n/a	n/a	n/a
3623444	RECOG_CONF	n/a	LTP141	ltpFR	6	5	-1	STRAW	1390	3	-1	n/a	n/a	n/a	n/a	n/a
3624975	RECOG_TARGET	n/a	LTP141	ltpFR	6	5	1	CLARINET	317	5	0	n/a	n/a	n/a	n/a	n/a
3625787	RECOG_RESP	n/a	LTP141	ltpFR	6	5	1	CLARINET	317	n/a	0	n/a	n/a	n/a	n/a	n/a
3626791	RECOG_CONF	n/a	LTP141	ltpFR	6	5	1	CLARINET	317	5	0	n/a	n/a	n/a	n/a	n/a
3628405	RECOG_TARGET	n/a	LTP141	ltpFR	6	5	1	SURF	1412	4	0	n/a	n/a	n/a	n/a	n/a
3630225	RECOG_RESP_VV	n/a	LTP141	ltpFR	6	5	1	SURF	1412	n/a	0	n/a	n/a	n/a	n/a	n/a
3631497	RECOG_RESP	n/a	LTP141	ltpFR	6	5	1	SURF	1412	n/a	0	n/a	n/a	n/a	n/a	n/a
3632608	RECOG_CONF	n/a	LTP141	ltpFR	6	5	1	SURF	1412	4	0	n/a	n/a	n/a	n/a	n/a
3634223	RECOG_TARGET	n/a	LTP141	ltpFR	6	5	1	MINT	898	5	0	n/a	n/a	n/a	n/a	n/a
3635022	RECOG_RESP	n/a	LTP141	ltpFR	6	5	1	MINT	898	n/a	0	n/a	n/a	n/a	n/a	n/a
3636285	RECOG_CONF	n/a	LTP141	ltpFR	6	5	1	MINT	898	5	0	n/a	n/a	n/a	n/a	n/a
3637818	RECOG_LURE	n/a	LTP141	ltpFR	6	5	n/a	DRAWER	493	4	n/a	n/a	n/a	n/a	n/a	n/a
3638550	RECOG_RESP	n/a	LTP141	ltpFR	6	5	n/a	DRAWER	493	n/a	n/a	n/a	n/a	n/a	n/a	n/a
3639508	RECOG_CONF	n/a	LTP141	ltpFR	6	5	n/a	DRAWER	493	4	n/a	n/a	n/a	n/a	n/a	n/a
3640981	RECOG_TARGET	n/a	LTP141	ltpFR	6	5	1	ELECTRICIAN	521	5	1	n/a	n/a	n/a	n/a	n/a
3641651	RECOG_RESP	n/a	LTP141	ltpFR	6	5	1	ELECTRICIAN	521	n/a	1	n/a	n/a	n/a	n/a	n/a
3642599	RECOG_CONF	n/a	LTP141	ltpFR	6	5	1	ELECTRICIAN	521	5	1	n/a	n/a	n/a	n/a	n/a
3644087	RECOG_LURE	n/a	LTP141	ltpFR	6	5	n/a	CAN	225	3	n/a	n/a	n/a	n/a	n/a	n/a
3644691	RECOG_RESP	n/a	LTP141	ltpFR	6	5	n/a	CAN	225	n/a	n/a	n/a	n/a	n/a	n/a	n/a
3645728	RECOG_CONF	n/a	LTP141	ltpFR	6	5	n/a	CAN	225	3	n/a	n/a	n/a	n/a	n/a	n/a
3647258	RECOG_TARGET	n/a	LTP141	ltpFR	6	5	1	CARDINAL	244	5	1	n/a	n/a	n/a	n/a	n/a
3647826	RECOG_RESP	n/a	LTP141	ltpFR	6	5	1	CARDINAL	244	n/a	1	n/a	n/a	n/a	n/a	n/a
3648942	RECOG_CONF	n/a	LTP141	ltpFR	6	5	1	CARDINAL	244	5	1	n/a	n/a	n/a	n/a	n/a
3650222	RECOG_TARGET	n/a	LTP141	ltpFR	6	5	0	HEAD	695	5	1	n/a	n/a	n/a	n/a	n/a
3651024	RECOG_RESP	n/a	LTP141	ltpFR	6	5	0	HEAD	695	n/a	1	n/a	n/a	n/a	n/a	n/a
3652159	RECOG_CONF	n/a	LTP141	ltpFR	6	5	0	HEAD	695	5	1	n/a	n/a	n/a	n/a	n/a
3653741	RECOG_LURE	n/a	LTP141	ltpFR	6	5	n/a	ASSOCIATE	49	4	n/a	n/a	n/a	n/a	n/a	n/a
3654504	RECOG_RESP	n/a	LTP141	ltpFR	6	5	n/a	ASSOCIATE	49	n/a	n/a	n/a	n/a	n/a	n/a	n/a
3655663	RECOG_CONF	n/a	LTP141	ltpFR	6	5	n/a	ASSOCIATE	49	4	n/a	n/a	n/a	n/a	n/a	n/a
3657213	RECOG_LURE	n/a	LTP141	ltpFR	6	5	n/a	FLOWER	584	4	n/a	n/a	n/a	n/a	n/a	n/a
3657803	RECOG_RESP	n/a	LTP141	ltpFR	6	5	n/a	FLOWER	584	n/a	n/a	n/a	n/a	n/a	n/a	n/a
3658807	RECOG_CONF	n/a	LTP141	ltpFR	6	5	n/a	FLOWER	584	4	n/a	n/a	n/a	n/a	n/a	n/a
3660393	RECOG_TARGET	n/a	LTP141	ltpFR	6	5	0	PEBBLE	1035	5	0	n/a	n/a	n/a	n/a	n/a
3661159	RECOG_RESP	n/a	LTP141	ltpFR	6	5	0	PEBBLE	1035	n/a	0	n/a	n/a	n/a	n/a	n/a
3662221	RECOG_CONF	n/a	LTP141	ltpFR	6	5	0	PEBBLE	1035	5	0	n/a	n/a	n/a	n/a	n/a
3667645	REC_START	n/a	LTP141	ltpFR	6	6	n/a	n/a	n/a	n/a	n/a	n/a	n/a	n/a	n/a	n/a
3667675	RECOG_TARGET	n/a	LTP141	ltpFR	6	6	0	RANCH	1166	5	1	n/a	n/a	n/a	n/a	n/a
3668510	RECOG_RESP	n/a	LTP141	ltpFR	6	6	0	RANCH	1166	n/a	1	n/a	n/a	n/a	n/a	n/a
3669525	RECOG_CONF	n/a	LTP141	ltpFR	6	6	0	RANCH	1166	5	1	n/a	n/a	n/a	n/a	n/a
3671189	RECOG_LURE	n/a	LTP141	ltpFR	6	6	n/a	COFFEE	341	5	n/a	n/a	n/a	n/a	n/a	n/a
3671862	RECOG_RESP	n/a	LTP141	ltpFR	6	6	n/a	COFFEE	341	n/a	n/a	n/a	n/a	n/a	n/a	n/a
3672896	RECOG_CONF	n/a	LTP141	ltpFR	6	6	n/a	COFFEE	341	5	n/a	n/a	n/a	n/a	n/a	n/a
3674468	RECOG_LURE	n/a	LTP141	ltpFR	6	6	n/a	BABY	64	4	n/a	n/a	n/a	n/a	n/a	n/a
3675155	RECOG_RESP	n/a	LTP141	ltpFR	6	6	n/a	BABY	64	n/a	n/a	n/a	n/a	n/a	n/a	n/a
3676249	RECOG_CONF	n/a	LTP141	ltpFR	6	6	n/a	BABY	64	4	n/a	n/a	n/a	n/a	n/a	n/a
3677805	RECOG_TARGET	n/a	LTP141	ltpFR	6	6	0	TABLET	1427	5	1	n/a	n/a	n/a	n/a	n/a
3678533	RECOG_RESP	n/a	LTP141	ltpFR	6	6	0	TABLET	1427	n/a	1	n/a	n/a	n/a	n/a	n/a
3679542	RECOG_CONF	n/a	LTP141	ltpFR	6	6	0	TABLET	1427	5	1	n/a	n/a	n/a	n/a	n/a
3681111	RECOG_TARGET	n/a	LTP141	ltpFR	6	6	1	MARINE	869	3	1	n/a	n/a	n/a	n/a	n/a
3681864	RECOG_RESP	n/a	LTP141	ltpFR	6	6	1	MARINE	869	n/a	1	n/a	n/a	n/a	n/a	n/a
3683243	RECOG_CONF	n/a	LTP141	ltpFR	6	6	1	MARINE	869	3	1	n/a	n/a	n/a	n/a	n/a
3685239	RECOG_TARGET	n/a	LTP141	ltpFR	6	6	0	WRIST	1626	5	0	n/a	n/a	n/a	n/a	n/a
3685910	RECOG_RESP	n/a	LTP141	ltpFR	6	6	0	WRIST	1626	n/a	0	n/a	n/a	n/a	n/a	n/a
3686946	RECOG_CONF	n/a	LTP141	ltpFR	6	6	0	WRIST	1626	5	0	n/a	n/a	n/a	n/a	n/a
3688444	RECOG_TARGET	n/a	LTP141	ltpFR	6	6	1	DISC	473	4	0	n/a	n/a	n/a	n/a	n/a
3689269	RECOG_RESP_VV	n/a	LTP141	ltpFR	6	6	1	DISC	473	n/a	0	n/a	n/a	n/a	n/a	n/a
3690513	RECOG_RESP	n/a	LTP141	ltpFR	6	6	1	DISC	473	n/a	0	n/a	n/a	n/a	n/a	n/a
3691889	RECOG_CONF	n/a	LTP141	ltpFR	6	6	1	DISC	473	4	0	n/a	n/a	n/a	n/a	n/a
3693471	RECOG_LURE	n/a	LTP141	ltpFR	6	6	n/a	ORGAN	984	4	n/a	n/a	n/a	n/a	n/a	n/a
3694435	RECOG_RESP	n/a	LTP141	ltpFR	6	6	n/a	ORGAN	984	n/a	n/a	n/a	n/a	n/a	n/a	n/a
3695488	RECOG_CONF	n/a	LTP141	ltpFR	6	6	n/a	ORGAN	984	4	n/a	n/a	n/a	n/a	n/a	n/a
3697041	RECOG_LURE	n/a	LTP141	ltpFR	6	6	n/a	COSTUME	383	4	n/a	n/a	n/a	n/a	n/a	n/a
3697736	RECOG_RESP	n/a	LTP141	ltpFR	6	6	n/a	COSTUME	383	n/a	n/a	n/a	n/a	n/a	n/a	n/a
3698849	RECOG_CONF	n/a	LTP141	ltpFR	6	6	n/a	COSTUME	383	4	n/a	n/a	n/a	n/a	n/a	n/a
3700338	RECOG_TARGET	n/a	LTP141	ltpFR	6	6	-1	BLENDER	136	5	-1	n/a	n/a	n/a	n/a	n/a
3701015	RECOG_RESP_VV	n/a	LTP141	ltpFR	6	6	-1	BLENDER	136	n/a	-1	n/a	n/a	n/a	n/a	n/a
3702226	RECOG_RESP	n/a	LTP141	ltpFR	6	6	-1	BLENDER	136	n/a	-1	n/a	n/a	n/a	n/a	n/a
3703400	RECOG_CONF	n/a	LTP141	ltpFR	6	6	-1	BLENDER	136	5	-1	n/a	n/a	n/a	n/a	n/a
3705015	RECOG_LURE	n/a	LTP141	ltpFR	6	6	n/a	ROOST	1208	5	n/a	n/a	n/a	n/a	n/a	n/a
3707207	RECOG_RESP	n/a	LTP141	ltpFR	6	6	n/a	ROOST	1208	n/a	n/a	n/a	n/a	n/a	n/a	n/a
3708443	RECOG_CONF	n/a	LTP141	ltpFR	6	6	n/a	ROOST	1208	5	n/a	n/a	n/a	n/a	n/a	n/a
3710094	RECOG_LURE	n/a	LTP141	ltpFR	6	6	n/a	SHARK	1275	3	n/a	n/a	n/a	n/a	n/a	n/a
3710748	RECOG_RESP	n/a	LTP141	ltpFR	6	6	n/a	SHARK	1275	n/a	n/a	n/a	n/a	n/a	n/a	n/a
3711792	RECOG_CONF	n/a	LTP141	ltpFR	6	6	n/a	SHARK	1275	3	n/a	n/a	n/a	n/a	n/a	n/a
3713398	RECOG_LURE	n/a	LTP141	ltpFR	6	6	n/a	DOLL	481	4	n/a	n/a	n/a	n/a	n/a	n/a
3714329	RECOG_RESP	n/a	LTP141	ltpFR	6	6	n/a	DOLL	481	n/a	n/a	n/a	n/a	n/a	n/a	n/a
3715397	RECOG_CONF	n/a	LTP141	ltpFR	6	6	n/a	DOLL	481	4	n/a	n/a	n/a	n/a	n/a	n/a
3717010	RECOG_TARGET	n/a	LTP141	ltpFR	6	6	0	CROW	414	5	1	n/a	n/a	n/a	n/a	n/a
3717998	RECOG_RESP	n/a	LTP141	ltpFR	6	6	0	CROW	414	n/a	1	n/a	n/a	n/a	n/a	n/a
3718957	RECOG_CONF	n/a	LTP141	ltpFR	6	6	0	CROW	414	5	1	n/a	n/a	n/a	n/a	n/a
3720290	RECOG_LURE	n/a	LTP141	ltpFR	6	6	n/a	BED	110	4	n/a	n/a	n/a	n/a	n/a	n/a
3721165	RECOG_RESP	n/a	LTP141	ltpFR	6	6	n/a	BED	110	n/a	n/a	n/a	n/a	n/a	n/a	n/a
3722334	RECOG_CONF	n/a	LTP141	ltpFR	6	6	n/a	BED	110	4	n/a	n/a	n/a	n/a	n/a	n/a
3723844	RECOG_LURE	n/a	LTP141	ltpFR	6	6	n/a	APRON	35	3	n/a	n/a	n/a	n/a	n/a	n/a
3724693	RECOG_RESP	n/a	LTP141	ltpFR	6	6	n/a	APRON	35	n/a	n/a	n/a	n/a	n/a	n/a	n/a
3725847	RECOG_CONF	n/a	LTP141	ltpFR	6	6	n/a	APRON	35	3	n/a	n/a	n/a	n/a	n/a	n/a
3727482	RECOG_TARGET	n/a	LTP141	ltpFR	6	6	-1	GROUND	666	5	-1	n/a	n/a	n/a	n/a	n/a
3728467	RECOG_RESP	n/a	LTP141	ltpFR	6	6	-1	GROUND	666	n/a	-1	n/a	n/a	n/a	n/a	n/a
3729592	RECOG_CONF	n/a	LTP141	ltpFR	6	6	-1	GROUND	666	5	-1	n/a	n/a	n/a	n/a	n/a
3731303	RECOG_TARGET	n/a	LTP141	ltpFR	6	6	1	FELLOW	558	5	1	n/a	n/a	n/a	n/a	n/a
3732263	RECOG_RESP	n/a	LTP141	ltpFR	6	6	1	FELLOW	558	n/a	1	n/a	n/a	n/a	n/a	n/a
3733333	RECOG_CONF	n/a	LTP141	ltpFR	6	6	1	FELLOW	558	5	1	n/a	n/a	n/a	n/a	n/a
3734981	RECOG_TARGET	n/a	LTP141	ltpFR	6	6	0	PRUNE	1134	5	0	n/a	n/a	n/a	n/a	n/a
3735653	RECOG_RESP_VV	n/a	LTP141	ltpFR	6	6	0	PRUNE	1134	n/a	0	n/a	n/a	n/a	n/a	n/a
3736906	RECOG_RESP	n/a	LTP141	ltpFR	6	6	0	PRUNE	1134	n/a	0	n/a	n/a	n/a	n/a	n/a
3738259	RECOG_CONF	n/a	LTP141	ltpFR	6	6	0	PRUNE	1134	5	0	n/a	n/a	n/a	n/a	n/a
3739842	RECOG_TARGET	n/a	LTP141	ltpFR	6	6	0	FIREPLACE	570	5	1	n/a	n/a	n/a	n/a	n/a
3740622	RECOG_RESP	n/a	LTP141	ltpFR	6	6	0	FIREPLACE	570	n/a	1	n/a	n/a	n/a	n/a	n/a
3741621	RECOG_CONF	n/a	LTP141	ltpFR	6	6	0	FIREPLACE	570	5	1	n/a	n/a	n/a	n/a	n/a
3745128	REC_START	n/a	LTP141	ltpFR	6	7	n/a	n/a	n/a	n/a	n/a	n/a	n/a	n/a	n/a	n/a
3745153	RECOG_TARGET	n/a	LTP141	ltpFR	6	7	1	OVEN	991	4	0	n/a	n/a	n/a	n/a	n/a
3746581	RECOG_RESP	n/a	LTP141	ltpFR	6	7	1	OVEN	991	n/a	0	n/a	n/a	n/a	n/a	n/a
3747597	RECOG_CONF	n/a	LTP141	ltpFR	6	7	1	OVEN	991	4	0	n/a	n/a	n/a	n/a	n/a
3749224	RECOG_LURE	n/a	LTP141	ltpFR	6	7	n/a	TERRITORY	1452	4	n/a	n/a	n/a	n/a	n/a	n/a
3749976	RECOG_RESP	n/a	LTP141	ltpFR	6	7	n/a	TERRITORY	1452	n/a	n/a	n/a	n/a	n/a	n/a	n/a
3751089	RECOG_CONF	n/a	LTP141	ltpFR	6	7	n/a	TERRITORY	1452	4	n/a	n/a	n/a	n/a	n/a	n/a
3752652	RECOG_LURE	n/a	LTP141	ltpFR	6	7	n/a	PUBLISHER	1137	4	n/a	n/a	n/a	n/a	n/a	n/a
3753405	RECOG_RESP	n/a	LTP141	ltpFR	6	7	n/a	PUBLISHER	1137	n/a	n/a	n/a	n/a	n/a	n/a	n/a
3754626	RECOG_CONF	n/a	LTP141	ltpFR	6	7	n/a	PUBLISHER	1137	4	n/a	n/a	n/a	n/a	n/a	n/a
3756199	RECOG_TARGET	n/a	LTP141	ltpFR	6	7	1	FRIEND	606	5	1	n/a	n/a	n/a	n/a	n/a
3756803	RECOG_RESP	n/a	LTP141	ltpFR	6	7	1	FRIEND	606	n/a	1	n/a	n/a	n/a	n/a	n/a
3757921	RECOG_CONF	n/a	LTP141	ltpFR	6	7	1	FRIEND	606	5	1	n/a	n/a	n/a	n/a	n/a
3759619	RECOG_TARGET	n/a	LTP141	ltpFR	6	7	-1	FREEWAY	603	4	-1	n/a	n/a	n/a	n/a	n/a
3760377	RECOG_RESP	n/a	LTP141	ltpFR	6	7	-1	FREEWAY	603	n/a	-1	n/a	n/a	n/a	n/a	n/a
3761443	RECOG_CONF	n/a	LTP141	ltpFR	6	7	-1	FREEWAY	603	4	-1	n/a	n/a	n/a	n/a	n/a
3763023	RECOG_TARGET	n/a	LTP141	ltpFR	6	7	0	HAWK	692	3	1	n/a	n/a	n/a	n/a	n/a
3763779	RECOG_RESP	n/a	LTP141	ltpFR	6	7	0	HAWK	692	n/a	1	n/a	n/a	n/a	n/a	n/a
3765083	RECOG_CONF	n/a	LTP141	ltpFR	6	7	0	HAWK	692	3	1	n/a	n/a	n/a	n/a	n/a
3766719	RECOG_TARGET	n/a	LTP141	ltpFR	6	7	-1	COCKTAIL	338	5	-1	n/a	n/a	n/a	n/a	n/a
3767452	RECOG_RESP	n/a	LTP141	ltpFR	6	7	-1	COCKTAIL	338	n/a	-1	n/a	n/a	n/a	n/a	n/a
3768576	RECOG_CONF	n/a	LTP141	ltpFR	6	7	-1	COCKTAIL	338	5	-1	n/a	n/a	n/a	n/a	n/a
3770183	RECOG_LURE	n/a	LTP141	ltpFR	6	7	n/a	BOY	161	3	n/a	n/a	n/a	n/a	n/a	n/a
3771062	RECOG_RESP	n/a	LTP141	ltpFR	6	7	n/a	BOY	161	n/a	n/a	n/a	n/a	n/a	n/a	n/a
3772092	RECOG_CONF	n/a	LTP141	ltpFR	6	7	n/a	BOY	161	3	n/a	n/a	n/a	n/a	n/a	n/a
3773694	RECOG_LURE	n/a	LTP141	ltpFR	6	7	n/a	CATHEDRAL	260	3	n/a	n/a	n/a	n/a	n/a	n/a
3774505	RECOG_RESP	n/a	LTP141	ltpFR	6	7	n/a	CATHEDRAL	260	n/a	n/a	n/a	n/a	n/a	n/a	n/a
3775645	RECOG_CONF	n/a	LTP141	ltpFR	6	7	n/a	CATHEDRAL	260	3	n/a	n/a	n/a	n/a	n/a	n/a
3777216	RECOG_TARGET	n/a	LTP141	ltpFR	6	7	0	CASHEW	253	5	0	n/a	n/a	n/a	n/a	n/a
3777893	RECOG_RESP	n/a	LTP141	ltpFR	6	7	0	CASHEW	253	n/a	0	n/a	n/a	n/a	n/a	n/a
3779029	RECOG_CONF	n/a	LTP141	ltpFR	6	7	0	CASHEW	253	5	0	n/a	n/a	n/a	n/a	n/a
3780644	RECOG_TARGET	n/a	LTP141	ltpFR	6	7	-1	POOL	1103	5	-1	n/a	n/a	n/a	n/a	n/a
3781243	RECOG_RESP	n/a	LTP141	ltpFR	6	7	-1	POOL	1103	n/a	-1	n/a	n/a	n/a	n/a	n/a
3782251	RECOG_CONF	n/a	LTP141	ltpFR	6	7	-1	POOL	1103	5	-1	n/a	n/a	n/a	n/a	n/a
3783782	RECOG_TARGET	n/a	LTP141	ltpFR	6	7	-1	DIVER	476	5	-1	n/a	n/a	n/a	n/a	n/a
3784333	RECOG_RESP	n/a	LTP141	ltpFR	6	7	-1	DIVER	476	n/a	-1	n/a	n/a	n/a	n/a	n/a
3785431	RECOG_CONF	n/a	LTP141	ltpFR	6	7	-1	DIVER	476	5	-1	n/a	n/a	n/a	n/a	n/a
3787012	RECOG_TARGET	n/a	LTP141	ltpFR	6	7	-1	WINDSHIELD	1612	5	-1	n/a	n/a	n/a	n/a	n/a
3787595	RECOG_RESP	n/a	LTP141	ltpFR	6	7	-1	WINDSHIELD	1612	n/a	-1	n/a	n/a	n/a	n/a	n/a
3788655	RECOG_CONF	n/a	LTP141	ltpFR	6	7	-1	WINDSHIELD	1612	5	-1	n/a	n/a	n/a	n/a	n/a
3790218	RECOG_TARGET	n/a	LTP141	ltpFR	6	7	-1	LINT	826	5	-1	n/a	n/a	n/a	n/a	n/a
3790801	RECOG_RESP	n/a	LTP141	ltpFR	6	7	-1	LINT	826	n/a	-1	n/a	n/a	n/a	n/a	n/a
3791868	RECOG_CONF	n/a	LTP141	ltpFR	6	7	-1	LINT	826	5	-1	n/a	n/a	n/a	n/a	n/a
3793554	RECOG_TARGET	n/a	LTP141	ltpFR	6	7	0	TAPIOCA	1434	5	0	n/a	n/a	n/a	n/a	n/a
3794096	RECOG_RESP	n/a	LTP141	ltpFR	6	7	0	TAPIOCA	1434	n/a	0	n/a	n/a	n/a	n/a	n/a
3795165	RECOG_CONF	n/a	LTP141	ltpFR	6	7	0	TAPIOCA	1434	5	0	n/a	n/a	n/a	n/a	n/a
3796676	RECOG_TARGET	n/a	LTP141	ltpFR	6	7	-1	TART	1436	5	-1	n/a	n/a	n/a	n/a	n/a
3797179	RECOG_RESP	n/a	LTP141	ltpFR	6	7	-1	TART	1436	n/a	-1	n/a	n/a	n/a	n/a	n/a
3798170	RECOG_CONF	n/a	LTP141	ltpFR	6	7	-1	TART	1436	5	-1	n/a	n/a	n/a	n/a	n/a
3799822	RECOG_TARGET	n/a	LTP141	ltpFR	6	7	1	SPIT	1354	5	0	n/a	n/a	n/a	n/a	n/a
3800307	RECOG_RESP	n/a	LTP141	ltpFR	6	7	1	SPIT	1354	n/a	0	n/a	n/a	n/a	n/a	n/a
3801390	RECOG_CONF	n/a	LTP141	ltpFR	6	7	1	SPIT	1354	5	0	n/a	n/a	n/a	n/a	n/a
3802977	RECOG_TARGET	n/a	LTP141	ltpFR	6	7	1	DENTIST	447	5	1	n/a	n/a	n/a	n/a	n/a
3803465	RECOG_RESP	n/a	LTP141	ltpFR	6	7	1	DENTIST	447	n/a	1	n/a	n/a	n/a	n/a	n/a
3804500	RECOG_CONF	n/a	LTP141	ltpFR	6	7	1	DENTIST	447	5	1	n/a	n/a	n/a	n/a	n/a
3806158	RECOG_TARGET	n/a	LTP141	ltpFR	6	7	-1	LAMP	798	5	-1	n/a	n/a	n/a	n/a	n/a
3807203	RECOG_RESP	n/a	LTP141	ltpFR	6	7	-1	LAMP	798	n/a	-1	n/a	n/a	n/a	n/a	n/a
3808297	RECOG_CONF	n/a	LTP141	ltpFR	6	7	-1	LAMP	798	5	-1	n/a	n/a	n/a	n/a	n/a
3809910	RECOG_LURE	n/a	LTP141	ltpFR	6	7	n/a	TRASH	1497	3	n/a	n/a	n/a	n/a	n/a	n/a
3810597	RECOG_RESP	n/a	LTP141	ltpFR	6	7	n/a	TRASH	1497	n/a	n/a	n/a	n/a	n/a	n/a	n/a
3811731	RECOG_CONF	n/a	LTP141	ltpFR	6	7	n/a	TRASH	1497	3	n/a	n/a	n/a	n/a	n/a	n/a
3815103	REC_START	n/a	LTP141	ltpFR	6	8	n/a	n/a	n/a	n/a	n/a	n/a	n/a	n/a	n/a	n/a
3815131	RECOG_TARGET	n/a	LTP141	ltpFR	6	8	0	PANTS	1010	5	0	n/a	n/a	n/a	n/a	n/a
3815946	RECOG_RESP	n/a	LTP141	ltpFR	6	8	0	PANTS	1010	n/a	0	n/a	n/a	n/a	n/a	n/a
3817022	RECOG_CONF	n/a	LTP141	ltpFR	6	8	0	PANTS	1010	5	0	n/a	n/a	n/a	n/a	n/a
3818584	RECOG_LURE	n/a	LTP141	ltpFR	6	8	n/a	COP	376	5	n/a	n/a	n/a	n/a	n/a	n/a
3819658	RECOG_RESP	n/a	LTP141	ltpFR	6	8	n/a	COP	376	n/a	n/a	n/a	n/a	n/a	n/a	n/a
3820675	RECOG_CONF	n/a	LTP141	ltpFR	6	8	n/a	COP	376	5	n/a	n/a	n/a	n/a	n/a	n/a
3822281	RECOG_TARGET	n/a	LTP141	ltpFR	6	8	0	THIMBLE	1458	5	0	n/a	n/a	n/a	n/a	n/a
3823008	RECOG_RESP	n/a	LTP141	ltpFR	6	8	0	THIMBLE	1458	n/a	0	n/a	n/a	n/a	n/a	n/a
3823945	RECOG_CONF	n/a	LTP141	ltpFR	6	8	0	THIMBLE	1458	5	0	n/a	n/a	n/a	n/a	n/a
3825510	RECOG_TARGET	n/a	LTP141	ltpFR	6	8	0	TOOL	1480	5	0	n/a	n/a	n/a	n/a	n/a
3826168	RECOG_RESP	n/a	LTP141	ltpFR	6	8	0	TOOL	1480	n/a	0	n/a	n/a	n/a	n/a	n/a
3827120	RECOG_CONF	n/a	LTP141	ltpFR	6	8	0	TOOL	1480	5	0	n/a	n/a	n/a	n/a	n/a
3828739	RECOG_TARGET	n/a	LTP141	ltpFR	6	8	1	HELMET	702	4	0	n/a	n/a	n/a	n/a	n/a
3829879	RECOG_RESP	n/a	LTP141	ltpFR	6	8	1	HELMET	702	n/a	0	n/a	n/a	n/a	n/a	n/a
3831111	RECOG_CONF	n/a	LTP141	ltpFR	6	8	1	HELMET	702	4	0	n/a	n/a	n/a	n/a	n/a
3832801	RECOG_TARGET	n/a	LTP141	ltpFR	6	8	0	THICKET	1455	5	1	n/a	n/a	n/a	n/a	n/a
3833872	RECOG_RESP	n/a	LTP141	ltpFR	6	8	0	THICKET	1455	n/a	1	n/a	n/a	n/a	n/a	n/a
3834912	RECOG_CONF	n/a	LTP141	ltpFR	6	8	0	THICKET	1455	5	1	n/a	n/a	n/a	n/a	n/a
3836389	RECOG_TARGET	n/a	LTP141	ltpFR	6	8	1	CATERPILLAR	259	4	1	n/a	n/a	n/a	n/a	n/a
3837036	RECOG_RESP	n/a	LTP141	ltpFR	6	8	1	CATERPILLAR	259	n/a	1	n/a	n/a	n/a	n/a	n/a
3838075	RECOG_CONF	n/a	LTP141	ltpFR	6	8	1	CATERPILLAR	259	4	1	n/a	n/a	n/a	n/a	n/a
3839726	RECOG_LURE	n/a	LTP141	ltpFR	6	8	n/a	SCOUT	1252	4	n/a	n/a	n/a	n/a	n/a	n/a
3840483	RECOG_RESP	n/a	LTP141	ltpFR	6	8	n/a	SCOUT	1252	n/a	n/a	n/a	n/a	n/a	n/a	n/a
3841574	RECOG_CONF	n/a	LTP141	ltpFR	6	8	n/a	SCOUT	1252	4	n/a	n/a	n/a	n/a	n/a	n/a
3843231	RECOG_TARGET	n/a	LTP141	ltpFR	6	8	1	SKELETON	1314	5	0	n/a	n/a	n/a	n/a	n/a
3843833	RECOG_RESP	n/a	LTP141	ltpFR	6	8	1	SKELETON	1314	n/a	0	n/a	n/a	n/a	n/a	n/a
3844860	RECOG_CONF	n/a	LTP141	ltpFR	6	8	1	SKELETON	1314	5	0	n/a	n/a	n/a	n/a	n/a
3846518	RECOG_TARGET	n/a	LTP141	ltpFR	6	8	-1	STREAM	1392	5	-1	n/a	n/a	n/a	n/a	n/a
3847044	RECOG_RESP	n/a	LTP141	ltpFR	6	8	-1	STREAM	1392	n/a	-1	n/a	n/a	n/a	n/a	n/a
3848085	RECOG_CONF	n/a	LTP141	ltpFR	6	8	-1	STREAM	1392	5	-1	n/a	n/a	n/a	n/a	n/a
3849739	RECOG_TARGET	n/a	LTP141	ltpFR	6	8	0	TOENAIL	1474	5	1	n/a	n/a	n/a	n/a	n/a
3850643	RECOG_RESP	n/a	LTP141	ltpFR	6	8	0	TOENAIL	1474	n/a	1	n/a	n/a	n/a	n/a	n/a
3851683	RECOG_CONF	n/a	LTP141	ltpFR	6	8	0	TOENAIL	1474	5	1	n/a	n/a	n/a	n/a	n/a
3853303	RECOG_LURE	n/a	LTP141	ltpFR	6	8	n/a	CABOOSE	214	4	n/a	n/a	n/a	n/a	n/a	n/a
3854254	RECOG_RESP	n/a	LTP141	ltpFR	6	8	n/a	CABOOSE	214	n/a	n/a	n/a	n/a	n/a	n/a	n/a
3855261	RECOG_CONF	n/a	LTP141	ltpFR	6	8	n/a	CABOOSE	214	4	n/a	n/a	n/a	n/a	n/a	n/a
3856840	RECOG_LURE	n/a	LTP141	ltpFR	6	8	n/a	NURSE	963	4	n/a	n/a	n/a	n/a	n/a	n/a
3857542	RECOG_RESP	n/a	LTP141	ltpFR	6	8	n/a	NURSE	963	n/a	n/a	n/a	n/a	n/a	n/a	n/a
3858623	RECOG_CONF	n/a	LTP141	ltpFR	6	8	n/a	NURSE	963	4	n/a	n/a	n/a	n/a	n/a	n/a
3860153	RECOG_TARGET	n/a	LTP141	ltpFR	6	8	1	PORCUPINE	1107	5	1	n/a	n/a	n/a	n/a	n/a
3862332	RECOG_RESP	n/a	LTP141	ltpFR	6	8	1	PORCUPINE	1107	n/a	1	n/a	n/a	n/a	n/a	n/a
3863325	RECOG_CONF	n/a	LTP141	ltpFR	6	8	1	PORCUPINE	1107	5	1	n/a	n/a	n/a	n/a	n/a
3864880	RECOG_LURE	n/a	LTP141	ltpFR	6	8	n/a	GUM	672	4	n/a	n/a	n/a	n/a	n/a	n/a
3865743	RECOG_RESP	n/a	LTP141	ltpFR	6	8	n/a	GUM	672	n/a	n/a	n/a	n/a	n/a	n/a	n/a
3866810	RECOG_CONF	n/a	LTP141	ltpFR	6	8	n/a	GUM	672	4	n/a	n/a	n/a	n/a	n/a	n/a
3868327	RECOG_LURE	n/a	LTP141	ltpFR	6	8	n/a	TURTLE	1522	4	n/a	n/a	n/a	n/a	n/a	n/a
3869206	RECOG_RESP	n/a	LTP141	ltpFR	6	8	n/a	TURTLE	1522	n/a	n/a	n/a	n/a	n/a	n/a	n/a
3870284	RECOG_CONF	n/a	LTP141	ltpFR	6	8	n/a	TURTLE	1522	4	n/a	n/a	n/a	n/a	n/a	n/a
3871897	RECOG_LURE	n/a	LTP141	ltpFR	6	8	n/a	OUTFIT	988	5	n/a	n/a	n/a	n/a	n/a	n/a
3872483	RECOG_RESP	n/a	LTP141	ltpFR	6	8	n/a	OUTFIT	988	n/a	n/a	n/a	n/a	n/a	n/a	n/a
3873580	RECOG_CONF	n/a	LTP141	ltpFR	6	8	n/a	OUTFIT	988	5	n/a	n/a	n/a	n/a	n/a	n/a
3875178	RECOG_TARGET	n/a	LTP141	ltpFR	6	8	1	MOVIE	927	4	0	n/a	n/a	n/a	n/a	n/a
3876120	RECOG_RESP	n/a	LTP141	ltpFR	6	8	1	MOVIE	927	n/a	0	n/a	n/a	n/a	n/a	n/a
3877251	RECOG_CONF	n/a	LTP141	ltpFR	6	8	1	MOVIE	927	4	0	n/a	n/a	n/a	n/a	n/a
3878831	RECOG_TARGET	n/a	LTP141	ltpFR	6	8	0	CHOCOLATE	306	5	0	n/a	n/a	n/a	n/a	n/a
3879490	RECOG_RESP	n/a	LTP141	ltpFR	6	8	0	CHOCOLATE	306	n/a	0	n/a	n/a	n/a	n/a	n/a
3880536	RECOG_CONF	n/a	LTP141	ltpFR	6	8	0	CHOCOLATE	306	5	0	n/a	n/a	n/a	n/a	n/a
3882219	RECOG_LURE	n/a	LTP141	ltpFR	6	8	n/a	REFEREE	1178	5	n/a	n/a	n/a	n/a	n/a	n/a
3882946	RECOG_RESP	n/a	LTP141	ltpFR	6	8	n/a	REFEREE	1178	n/a	n/a	n/a	n/a	n/a	n/a	n/a
3884101	RECOG_CONF	n/a	LTP141	ltpFR	6	8	n/a	REFEREE	1178	5	n/a	n/a	n/a	n/a	n/a	n/a
3887864	REC_START	n/a	LTP141	ltpFR	6	9	n/a	n/a	n/a	n/a	n/a	n/a	n/a	n/a	n/a	n/a
3887887	RECOG_LURE	n/a	LTP141	ltpFR	6	9	n/a	THIEF	1456	4	n/a	n/a	n/a	n/a	n/a	n/a
3888765	RECOG_RESP	n/a	LTP141	ltpFR	6	9	n/a	THIEF	1456	n/a	n/a	n/a	n/a	n/a	n/a	n/a
3889773	RECOG_CONF	n/a	LTP141	ltpFR	6	9	n/a	THIEF	1456	4	n/a	n/a	n/a	n/a	n/a	n/a
3891259	RECOG_LURE	n/a	LTP141	ltpFR	6	9	n/a	SLUG	1329	4	n/a	n/a	n/a	n/a	n/a	n/a
3891874	RECOG_RESP	n/a	LTP141	ltpFR	6	9	n/a	SLUG	1329	n/a	n/a	n/a	n/a	n/a	n/a	n/a
3892917	RECOG_CONF	n/a	LTP141	ltpFR	6	9	n/a	SLUG	1329	4	n/a	n/a	n/a	n/a	n/a	n/a
3894505	RECOG_TARGET	n/a	LTP141	ltpFR	6	9	1	POSSUM	1112	5	1	n/a	n/a	n/a	n/a	n/a
3895091	RECOG_RESP_VV	n/a	LTP141	ltpFR	6	9	1	POSSUM	1112	n/a	1	n/a	n/a	n/a	n/a	n/a
3895806	RECOG_RESP	n/a	LTP141	ltpFR	6	9	1	POSSUM	1112	n/a	1	n/a	n/a	n/a	n/a	n/a
3896867	RECOG_CONF	n/a	LTP141	ltpFR	6	9	1	POSSUM	1112	5	1	n/a	n/a	n/a	n/a	n/a
3898524	RECOG_TARGET	n/a	LTP141	ltpFR	6	9	0	INSECT	740	5	0	n/a	n/a	n/a	n/a	n/a
3899174	RECOG_RESP	n/a	LTP141	ltpFR	6	9	0	INSECT	740	n/a	0	n/a	n/a	n/a	n/a	n/a
3900282	RECOG_CONF	n/a	LTP141	ltpFR	6	9	0	INSECT	740	5	0	n/a	n/a	n/a	n/a	n/a
3901896	RECOG_TARGET	n/a	LTP141	ltpFR	6	9	-1	SKI	1316	3	-1	n/a	n/a	n/a	n/a	n/a
3902471	RECOG_RESP	n/a	LTP141	ltpFR	6	9	-1	SKI	1316	n/a	-1	n/a	n/a	n/a	n/a	n/a
3903642	RECOG_CONF	n/a	LTP141	ltpFR	6	9	-1	SKI	1316	3	-1	n/a	n/a	n/a	n/a	n/a
3905434	RECOG_LURE	n/a	LTP141	ltpFR	6	9	n/a	WALLET	1583	4	n/a	n/a	n/a	n/a	n/a	n/a
3906173	RECOG_RESP	n/a	LTP141	ltpFR	6	9	n/a	WALLET	1583	n/a	n/a	n/a	n/a	n/a	n/a	n/a
3907384	RECOG_CONF	n/a	LTP141	ltpFR	6	9	n/a	WALLET	1583	4	n/a	n/a	n/a	n/a	n/a	n/a
3908954	RECOG_TARGET	n/a	LTP141	ltpFR	6	9	1	CABIN	211	4	0	n/a	n/a	n/a	n/a	n/a
3909733	RECOG_RESP	n/a	LTP141	ltpFR	6	9	1	CABIN	211	n/a	0	n/a	n/a	n/a	n/a	n/a
3910750	RECOG_CONF	n/a	LTP141	ltpFR	6	9	1	CABIN	211	4	0	n/a	n/a	n/a	n/a	n/a
3912243	RECOG_LURE	n/a	LTP141	ltpFR	6	9	n/a	CRUTCH	417	4	n/a	n/a	n/a	n/a	n/a	n/a
3912897	RECOG_RESP	n/a	LTP141	ltpFR	6	9	n/a	CRUTCH	417	n/a	n/a	n/a	n/a	n/a	n/a	n/a
3913880	RECOG_CONF	n/a	LTP141	ltpFR	6	9	n/a	CRUTCH	417	4	n/a	n/a	n/a	n/a	n/a	n/a
