mstime	trial_type	stim_file	subject	experiment	session	trial	task	item_name	item_num	recog_conf	resp	answer	test_x	test_y	test_z	color_b	color_g	color_r	case	font
0	SESS_START	n/a	LTP247	ltpFR	15	n/a	n/a	n/a	n/a	1	n/a	n/a	0	0	0	n/a	n/a	n/a	n/a	n/a
26291	START	n/a	LTP247	ltpFR	15	n/a	n/a	n/a	n/a	n/a	n/a	n/a	n/a	n/a	n/a	n/a	n/a	n/a	n/a	n/a
26323	PROB	n/a	LTP247	ltpFR	15	n/a	n/a	n/a	n/a	n/a	n/a	18	7	6	5	n/a	n/a	n/a	n/a	n/a
27738	PROB	n/a	LTP247	ltpFR	15	n/a	n/a	n/a	n/a	n/a	n/a	16	6	7	3	n/a	n/a	n/a	n/a	n/a
29319	PROB	n/a	LTP247	ltpFR	15	n/a	n/a	n/a	n/a	n/a	n/a	19	4	8	7	n/a	n/a	n/a	n/a	n/a
30584	PROB	n/a	LTP247	ltpFR	15	n/a	n/a	n/a	n/a	n/a	n/a	12	6	5	1	n/a	n/a	n/a	n/a	n/a
31982	PROB	n/a	LTP247	ltpFR	15	n/a	n/a	n/a	n/a	n/a	n/a	8	1	2	5	n/a	n/a	n/a	n/a	n/a
33180	PROB	n/a	LTP247	ltpFR	15	n/a	n/a	n/a	n/a	n/a	n/a	15	5	8	2	n/a	n/a	n/a	n/a	n/a
34894	PROB	n/a	LTP247	ltpFR	15	n/a	n/a	n/a	n/a	n/a	n/a	11	4	4	3	n/a	n/a	n/a	n/a	n/a
36092	PROB	n/a	LTP247	ltpFR	15	n/a	n/a	n/a	n/a	n/a	n/a	10	6	3	1	n/a	n/a	n/a	n/a	n/a
37690	PROB	n/a	LTP247	ltpFR	15	n/a	n/a	n/a	n/a	n/a	n/a	16	5	8	3	n/a	n/a	n/a	n/a	n/a
39021	PROB	n/a	LTP247	ltpFR	15	n/a	n/a	n/a	n/a	n/a	n/a	10	5	4	1	n/a	n/a	n/a	n/a	n/a
40303	PROB	n/a	LTP247	ltpFR	15	n/a	n/a	n/a	n/a	n/a	n/a	10	5	4	3	n/a	n/a	n/a	n/a	n/a
41584	PROB	n/a	LTP247	ltpFR	15	n/a	n/a	n/a	n/a	n/a	n/a	19	4	9	6	n/a	n/a	n/a	n/a	n/a
44749	STOP	n/a	LTP247	ltpFR	15	n/a	n/a	n/a	n/a	n/a	n/a	n/a	n/a	n/a	n/a	n/a	n/a	n/a	n/a	n/a
84819	WORD	wordpools/wasnorm_wordpool_less_exclusions.txt	LTP247	ltpFR	15	1	0	DRESS	495	n/a	1	n/a	0	0	0	1	0.412841796875	0.57763671875	upper	../fonts/zerothre.ttf
88764	WORD	wordpools/wasnorm_wordpool_less_exclusions.txt	LTP247	ltpFR	15	1	0	BANJO	82	n/a	1	n/a	0	0	0	1	0.412841796875	0.57763671875	upper	../fonts/zerothre.ttf
92741	WORD	wordpools/wasnorm_wordpool_less_exclusions.txt	LTP247	ltpFR	15	1	0	MARKET	871	n/a	1	n/a	0	0	0	1	0.412841796875	0.57763671875	upper	../fonts/zerothre.ttf
96951	WORD	wordpools/wasnorm_wordpool_less_exclusions.txt	LTP247	ltpFR	15	1	0	BUILDING	191	n/a	1	n/a	0	0	0	1	0.412841796875	0.57763671875	upper	../fonts/zerothre.ttf
100979	WORD	wordpools/wasnorm_wordpool_less_exclusions.txt	LTP247	ltpFR	15	1	0	NOSE	957	n/a	0	n/a	0	0	0	1	0.412841796875	0.57763671875	upper	../fonts/zerothre.ttf
105039	WORD	wordpools/wasnorm_wordpool_less_exclusions.txt	LTP247	ltpFR	15	1	0	SENATOR	1268	n/a	1	n/a	0	0	0	1	0.412841796875	0.57763671875	upper	../fonts/zerothre.ttf
109133	WORD	wordpools/wasnorm_wordpool_less_exclusions.txt	LTP247	ltpFR	15	1	0	GRILL	661	n/a	1	n/a	0	0	0	1	0.412841796875	0.57763671875	upper	../fonts/zerothre.ttf
113094	WORD	wordpools/wasnorm_wordpool_less_exclusions.txt	LTP247	ltpFR	15	1	0	ROOST	1208	n/a	1	n/a	0	0	0	1	0.412841796875	0.57763671875	upper	../fonts/zerothre.ttf
117238	WORD	wordpools/wasnorm_wordpool_less_exclusions.txt	LTP247	ltpFR	15	1	0	LASH	802	n/a	0	n/a	0	0	0	1	0.412841796875	0.57763671875	upper	../fonts/zerothre.ttf
121099	WORD	wordpools/wasnorm_wordpool_less_exclusions.txt	LTP247	ltpFR	15	1	0	MUSEUM	933	n/a	1	n/a	0	0	0	1	0.412841796875	0.57763671875	upper	../fonts/zerothre.ttf
125326	WORD	wordpools/wasnorm_wordpool_less_exclusions.txt	LTP247	ltpFR	15	1	0	DRAWING	494	n/a	0	n/a	0	0	0	1	0.412841796875	0.57763671875	upper	../fonts/zerothre.ttf
129419	WORD	wordpools/wasnorm_wordpool_less_exclusions.txt	LTP247	ltpFR	15	1	0	GOVERNOR	651	n/a	1	n/a	0	0	0	1	0.412841796875	0.57763671875	upper	../fonts/zerothre.ttf
133264	WORD	wordpools/wasnorm_wordpool_less_exclusions.txt	LTP247	ltpFR	15	1	0	VEST	1559	n/a	0	n/a	0	0	0	1	0.412841796875	0.57763671875	upper	../fonts/zerothre.ttf
137408	WORD	wordpools/wasnorm_wordpool_less_exclusions.txt	LTP247	ltpFR	15	1	0	EAGLE	512	n/a	1	n/a	0	0	0	1	0.412841796875	0.57763671875	upper	../fonts/zerothre.ttf
141618	WORD	wordpools/wasnorm_wordpool_less_exclusions.txt	LTP247	ltpFR	15	1	0	BUTTERFLY	206	n/a	0	n/a	0	0	0	1	0.412841796875	0.57763671875	upper	../fonts/zerothre.ttf
145778	WORD	wordpools/wasnorm_wordpool_less_exclusions.txt	LTP247	ltpFR	15	1	0	NOTE	958	n/a	0	n/a	0	0	0	1	0.412841796875	0.57763671875	upper	../fonts/zerothre.ttf
148791	START	n/a	LTP247	ltpFR	15	n/a	n/a	n/a	n/a	n/a	n/a	n/a	n/a	n/a	n/a	n/a	n/a	n/a	n/a	n/a
149689	PROB	n/a	LTP247	ltpFR	15	n/a	n/a	n/a	n/a	n/a	n/a	8	4	3	1	n/a	n/a	n/a	n/a	n/a
151353	PROB	n/a	LTP247	ltpFR	15	n/a	n/a	n/a	n/a	n/a	n/a	18	6	8	4	n/a	n/a	n/a	n/a	n/a
152785	PROB	n/a	LTP247	ltpFR	15	n/a	n/a	n/a	n/a	n/a	n/a	19	4	8	7	n/a	n/a	n/a	n/a	n/a
154482	PROB	n/a	LTP247	ltpFR	15	n/a	n/a	n/a	n/a	n/a	n/a	14	6	7	1	n/a	n/a	n/a	n/a	n/a
155837	STOP	n/a	LTP247	ltpFR	15	n/a	n/a	n/a	n/a	n/a	n/a	n/a	n/a	n/a	n/a	n/a	n/a	n/a	n/a	n/a
158710	REC_START	n/a	LTP247	ltpFR	15	1	n/a	n/a	n/a	n/a	n/a	n/a	0	0	0	n/a	n/a	n/a	n/a	n/a
161107	REC_WORD	wordpools/wasnorm_wordpool_less_exclusions.txt	LTP247	ltpFR	15	1	0	NOTE	958	n/a	0	n/a	0	0	0	n/a	n/a	n/a	n/a	n/a
162083	REC_WORD	wordpools/wasnorm_wordpool_less_exclusions.txt	LTP247	ltpFR	15	1	0	DRAWING	494	n/a	0	n/a	0	0	0	n/a	n/a	n/a	n/a	n/a
162882	REC_WORD	wordpools/wasnorm_wordpool_less_exclusions.txt	LTP247	ltpFR	15	1	0	BUTTERFLY	206	n/a	0	n/a	0	0	0	n/a	n/a	n/a	n/a	n/a
163842	REC_WORD	wordpools/wasnorm_wordpool_less_exclusions.txt	LTP247	ltpFR	15	1	0	EAGLE	512	n/a	1	n/a	0	0	0	n/a	n/a	n/a	n/a	n/a
164564	REC_WORD	wordpools/wasnorm_wordpool_less_exclusions.txt	LTP247	ltpFR	15	1	0	MUSEUM	933	n/a	1	n/a	0	0	0	n/a	n/a	n/a	n/a	n/a
165600	REC_WORD	wordpools/wasnorm_wordpool_less_exclusions.txt	LTP247	ltpFR	15	1	0	BUILDING	191	n/a	1	n/a	0	0	0	n/a	n/a	n/a	n/a	n/a
166536	REC_WORD	wordpools/wasnorm_wordpool_less_exclusions.txt	LTP247	ltpFR	15	1	0	SENATOR	1268	n/a	1	n/a	0	0	0	n/a	n/a	n/a	n/a	n/a
167686	REC_WORD	wordpools/wasnorm_wordpool_less_exclusions.txt	LTP247	ltpFR	15	1	0	GOVERNOR	651	n/a	1	n/a	0	0	0	n/a	n/a	n/a	n/a	n/a
168642	REC_WORD	wordpools/wasnorm_wordpool_less_exclusions.txt	LTP247	ltpFR	15	1	0	NOSE	957	n/a	0	n/a	0	0	0	n/a	n/a	n/a	n/a	n/a
169694	REC_WORD	wordpools/wasnorm_wordpool_less_exclusions.txt	LTP247	ltpFR	15	1	0	LASH	802	n/a	0	n/a	0	0	0	n/a	n/a	n/a	n/a	n/a
170804	REC_WORD	wordpools/wasnorm_wordpool_less_exclusions.txt	LTP247	ltpFR	15	1	0	DRESS	495	n/a	1	n/a	0	0	0	n/a	n/a	n/a	n/a	n/a
171828	REC_WORD	wordpools/wasnorm_wordpool_less_exclusions.txt	LTP247	ltpFR	15	1	0	VEST	1559	n/a	0	n/a	0	0	0	n/a	n/a	n/a	n/a	n/a
241852	START	n/a	LTP247	ltpFR	15	n/a	n/a	n/a	n/a	n/a	n/a	n/a	n/a	n/a	n/a	n/a	n/a	n/a	n/a	n/a
243366	PROB	n/a	LTP247	ltpFR	15	n/a	n/a	n/a	n/a	n/a	n/a	8	1	3	4	n/a	n/a	n/a	n/a	n/a
244864	PROB	n/a	LTP247	ltpFR	15	n/a	n/a	n/a	n/a	n/a	n/a	17	8	6	3	n/a	n/a	n/a	n/a	n/a
246395	PROB	n/a	LTP247	ltpFR	15	n/a	n/a	n/a	n/a	n/a	n/a	9	3	2	4	n/a	n/a	n/a	n/a	n/a
247660	PROB	n/a	LTP247	ltpFR	15	n/a	n/a	n/a	n/a	n/a	n/a	12	4	3	5	n/a	n/a	n/a	n/a	n/a
249245	STOP	n/a	LTP247	ltpFR	15	n/a	n/a	n/a	n/a	n/a	n/a	n/a	n/a	n/a	n/a	n/a	n/a	n/a	n/a	n/a
251021	WORD	wordpools/wasnorm_wordpool_less_exclusions.txt	LTP247	ltpFR	15	2	1	JUGGLER	763	n/a	1	n/a	0	0	0	0	0.5869140625	0.422607421875	lower	../fonts/amplitud.ttf
254034	START	n/a	LTP247	ltpFR	15	n/a	n/a	n/a	n/a	n/a	n/a	n/a	n/a	n/a	n/a	n/a	n/a	n/a	n/a	n/a
255082	PROB	n/a	LTP247	ltpFR	15	n/a	n/a	n/a	n/a	n/a	n/a	16	3	6	7	n/a	n/a	n/a	n/a	n/a
256514	PROB	n/a	LTP247	ltpFR	15	n/a	n/a	n/a	n/a	n/a	n/a	15	4	5	6	n/a	n/a	n/a	n/a	n/a
257911	PROB	n/a	LTP247	ltpFR	15	n/a	n/a	n/a	n/a	n/a	n/a	21	3	9	9	n/a	n/a	n/a	n/a	n/a
259409	PROB	n/a	LTP247	ltpFR	15	n/a	n/a	n/a	n/a	n/a	n/a	15	4	8	3	n/a	n/a	n/a	n/a	n/a
260518	STOP	n/a	LTP247	ltpFR	15	n/a	n/a	n/a	n/a	n/a	n/a	n/a	n/a	n/a	n/a	n/a	n/a	n/a	n/a	n/a
263153	WORD	wordpools/wasnorm_wordpool_less_exclusions.txt	LTP247	ltpFR	15	2	1	CROWN	415	n/a	0	n/a	0	0	0	0	0.5869140625	0.422607421875	lower	../fonts/amplitud.ttf
266166	START	n/a	LTP247	ltpFR	15	n/a	n/a	n/a	n/a	n/a	n/a	n/a	n/a	n/a	n/a	n/a	n/a	n/a	n/a	n/a
266997	PROB	n/a	LTP247	ltpFR	15	n/a	n/a	n/a	n/a	n/a	n/a	20	4	9	7	n/a	n/a	n/a	n/a	n/a
268462	PROB	n/a	LTP247	ltpFR	15	n/a	n/a	n/a	n/a	n/a	n/a	17	4	9	4	n/a	n/a	n/a	n/a	n/a
270359	PROB	n/a	LTP247	ltpFR	15	n/a	n/a	n/a	n/a	n/a	n/a	13	4	8	1	n/a	n/a	n/a	n/a	n/a
271840	PROB	n/a	LTP247	ltpFR	15	n/a	n/a	n/a	n/a	n/a	n/a	8	3	3	2	n/a	n/a	n/a	n/a	n/a
272941	STOP	n/a	LTP247	ltpFR	15	n/a	n/a	n/a	n/a	n/a	n/a	n/a	n/a	n/a	n/a	n/a	n/a	n/a	n/a	n/a
275102	WORD	wordpools/wasnorm_wordpool_less_exclusions.txt	LTP247	ltpFR	15	2	0	CABBAGE	210	n/a	0	n/a	0	0	0	1	0.412841796875	0.57763671875	upper	../fonts/zerothre.ttf
278115	START	n/a	LTP247	ltpFR	15	n/a	n/a	n/a	n/a	n/a	n/a	n/a	n/a	n/a	n/a	n/a	n/a	n/a	n/a	n/a
279262	PROB	n/a	LTP247	ltpFR	15	n/a	n/a	n/a	n/a	n/a	n/a	12	5	6	1	n/a	n/a	n/a	n/a	n/a
280744	PROB	n/a	LTP247	ltpFR	15	n/a	n/a	n/a	n/a	n/a	n/a	22	9	5	8	n/a	n/a	n/a	n/a	n/a
282191	PROB	n/a	LTP247	ltpFR	15	n/a	n/a	n/a	n/a	n/a	n/a	21	7	8	6	n/a	n/a	n/a	n/a	n/a
286115	STOP	n/a	LTP247	ltpFR	15	n/a	n/a	n/a	n/a	n/a	n/a	n/a	n/a	n/a	n/a	n/a	n/a	n/a	n/a	n/a
287317	WORD	wordpools/wasnorm_wordpool_less_exclusions.txt	LTP247	ltpFR	15	2	0	TONGUE	1479	n/a	0	n/a	0	0	0	1	0.412841796875	0.57763671875	upper	../fonts/zerothre.ttf
290330	START	n/a	LTP247	ltpFR	15	n/a	n/a	n/a	n/a	n/a	n/a	n/a	n/a	n/a	n/a	n/a	n/a	n/a	n/a	n/a
291528	PROB	n/a	LTP247	ltpFR	15	n/a	n/a	n/a	n/a	n/a	n/a	18	1	9	8	n/a	n/a	n/a	n/a	n/a
293142	PROB	n/a	LTP247	ltpFR	15	n/a	n/a	n/a	n/a	n/a	n/a	10	4	1	5	n/a	n/a	n/a	n/a	n/a
294773	PROB	n/a	LTP247	ltpFR	15	n/a	n/a	n/a	n/a	n/a	n/a	10	1	3	6	n/a	n/a	n/a	n/a	n/a
296071	PROB	n/a	LTP247	ltpFR	15	n/a	n/a	n/a	n/a	n/a	n/a	18	7	6	5	n/a	n/a	n/a	n/a	n/a
297325	STOP	n/a	LTP247	ltpFR	15	n/a	n/a	n/a	n/a	n/a	n/a	n/a	n/a	n/a	n/a	n/a	n/a	n/a	n/a	n/a
299249	WORD	wordpools/wasnorm_wordpool_less_exclusions.txt	LTP247	ltpFR	15	2	0	CITIZEN	312	n/a	1	n/a	0	0	0	1	0.412841796875	0.57763671875	upper	../fonts/zerothre.ttf
302262	START	n/a	LTP247	ltpFR	15	n/a	n/a	n/a	n/a	n/a	n/a	n/a	n/a	n/a	n/a	n/a	n/a	n/a	n/a	n/a
303410	PROB	n/a	LTP247	ltpFR	15	n/a	n/a	n/a	n/a	n/a	n/a	24	9	8	7	n/a	n/a	n/a	n/a	n/a
305207	PROB	n/a	LTP247	ltpFR	15	n/a	n/a	n/a	n/a	n/a	n/a	19	7	9	3	n/a	n/a	n/a	n/a	n/a
306871	PROB	n/a	LTP247	ltpFR	15	n/a	n/a	n/a	n/a	n/a	n/a	8	5	1	2	n/a	n/a	n/a	n/a	n/a
308186	PROB	n/a	LTP247	ltpFR	15	n/a	n/a	n/a	n/a	n/a	n/a	22	8	8	6	n/a	n/a	n/a	n/a	n/a
309685	STOP	n/a	LTP247	ltpFR	15	n/a	n/a	n/a	n/a	n/a	n/a	n/a	n/a	n/a	n/a	n/a	n/a	n/a	n/a	n/a
311398	WORD	wordpools/wasnorm_wordpool_less_exclusions.txt	LTP247	ltpFR	15	2	0	COMMUNITY	356	n/a	1	n/a	0	0	0	1	0.412841796875	0.57763671875	upper	../fonts/zerothre.ttf
314410	START	n/a	LTP247	ltpFR	15	n/a	n/a	n/a	n/a	n/a	n/a	n/a	n/a	n/a	n/a	n/a	n/a	n/a	n/a	n/a
315509	PROB	n/a	LTP247	ltpFR	15	n/a	n/a	n/a	n/a	n/a	n/a	17	8	2	7	n/a	n/a	n/a	n/a	n/a
317272	PROB	n/a	LTP247	ltpFR	15	n/a	n/a	n/a	n/a	n/a	n/a	24	7	8	9	n/a	n/a	n/a	n/a	n/a
319269	PROB	n/a	LTP247	ltpFR	15	n/a	n/a	n/a	n/a	n/a	n/a	17	5	5	7	n/a	n/a	n/a	n/a	n/a
322410	STOP	n/a	LTP247	ltpFR	15	n/a	n/a	n/a	n/a	n/a	n/a	n/a	n/a	n/a	n/a	n/a	n/a	n/a	n/a	n/a
323613	WORD	wordpools/wasnorm_wordpool_less_exclusions.txt	LTP247	ltpFR	15	2	0	MINER	896	n/a	1	n/a	0	0	0	1	0.412841796875	0.57763671875	upper	../fonts/zerothre.ttf
326625	START	n/a	LTP247	ltpFR	15	n/a	n/a	n/a	n/a	n/a	n/a	n/a	n/a	n/a	n/a	n/a	n/a	n/a	n/a	n/a
327757	PROB	n/a	LTP247	ltpFR	15	n/a	n/a	n/a	n/a	n/a	n/a	10	2	6	2	n/a	n/a	n/a	n/a	n/a
329321	PROB	n/a	LTP247	ltpFR	15	n/a	n/a	n/a	n/a	n/a	n/a	12	3	8	1	n/a	n/a	n/a	n/a	n/a
331135	PROB	n/a	LTP247	ltpFR	15	n/a	n/a	n/a	n/a	n/a	n/a	12	1	5	6	n/a	n/a	n/a	n/a	n/a
332483	PROB	n/a	LTP247	ltpFR	15	n/a	n/a	n/a	n/a	n/a	n/a	15	2	5	8	n/a	n/a	n/a	n/a	n/a
333901	STOP	n/a	LTP247	ltpFR	15	n/a	n/a	n/a	n/a	n/a	n/a	n/a	n/a	n/a	n/a	n/a	n/a	n/a	n/a	n/a
335811	WORD	wordpools/wasnorm_wordpool_less_exclusions.txt	LTP247	ltpFR	15	2	1	COAL	332	n/a	1	n/a	0	0	0	0	0.5869140625	0.422607421875	lower	../fonts/amplitud.ttf
338824	START	n/a	LTP247	ltpFR	15	n/a	n/a	n/a	n/a	n/a	n/a	n/a	n/a	n/a	n/a	n/a	n/a	n/a	n/a	n/a
339972	PROB	n/a	LTP247	ltpFR	15	n/a	n/a	n/a	n/a	n/a	n/a	19	7	7	5	n/a	n/a	n/a	n/a	n/a
341702	PROB	n/a	LTP247	ltpFR	15	n/a	n/a	n/a	n/a	n/a	n/a	15	4	7	4	n/a	n/a	n/a	n/a	n/a
343100	PROB	n/a	LTP247	ltpFR	15	n/a	n/a	n/a	n/a	n/a	n/a	22	6	7	9	n/a	n/a	n/a	n/a	n/a
344448	PROB	n/a	LTP247	ltpFR	15	n/a	n/a	n/a	n/a	n/a	n/a	11	4	4	3	n/a	n/a	n/a	n/a	n/a
345494	STOP	n/a	LTP247	ltpFR	15	n/a	n/a	n/a	n/a	n/a	n/a	n/a	n/a	n/a	n/a	n/a	n/a	n/a	n/a	n/a
347927	WORD	wordpools/wasnorm_wordpool_less_exclusions.txt	LTP247	ltpFR	15	2	1	HARP	689	n/a	0	n/a	0	0	0	0	0.5869140625	0.422607421875	lower	../fonts/amplitud.ttf
350939	START	n/a	LTP247	ltpFR	15	n/a	n/a	n/a	n/a	n/a	n/a	n/a	n/a	n/a	n/a	n/a	n/a	n/a	n/a	n/a
352020	PROB	n/a	LTP247	ltpFR	15	n/a	n/a	n/a	n/a	n/a	n/a	20	5	6	9	n/a	n/a	n/a	n/a	n/a
353618	PROB	n/a	LTP247	ltpFR	15	n/a	n/a	n/a	n/a	n/a	n/a	22	5	8	9	n/a	n/a	n/a	n/a	n/a
354766	PROB	n/a	LTP247	ltpFR	15	n/a	n/a	n/a	n/a	n/a	n/a	7	2	3	2	n/a	n/a	n/a	n/a	n/a
356164	PROB	n/a	LTP247	ltpFR	15	n/a	n/a	n/a	n/a	n/a	n/a	10	1	1	8	n/a	n/a	n/a	n/a	n/a
357413	STOP	n/a	LTP247	ltpFR	15	n/a	n/a	n/a	n/a	n/a	n/a	n/a	n/a	n/a	n/a	n/a	n/a	n/a	n/a	n/a
359909	WORD	wordpools/wasnorm_wordpool_less_exclusions.txt	LTP247	ltpFR	15	2	1	CRAYON	401	n/a	0	n/a	0	0	0	0	0.5869140625	0.422607421875	lower	../fonts/amplitud.ttf
362921	START	n/a	LTP247	ltpFR	15	n/a	n/a	n/a	n/a	n/a	n/a	n/a	n/a	n/a	n/a	n/a	n/a	n/a	n/a	n/a
363836	PROB	n/a	LTP247	ltpFR	15	n/a	n/a	n/a	n/a	n/a	n/a	11	6	1	4	n/a	n/a	n/a	n/a	n/a
365350	PROB	n/a	LTP247	ltpFR	15	n/a	n/a	n/a	n/a	n/a	n/a	14	1	6	7	n/a	n/a	n/a	n/a	n/a
367980	PROB	n/a	LTP247	ltpFR	15	n/a	n/a	n/a	n/a	n/a	n/a	20	8	6	6	n/a	n/a	n/a	n/a	n/a
370921	STOP	n/a	LTP247	ltpFR	15	n/a	n/a	n/a	n/a	n/a	n/a	n/a	n/a	n/a	n/a	n/a	n/a	n/a	n/a	n/a
371824	WORD	wordpools/wasnorm_wordpool_less_exclusions.txt	LTP247	ltpFR	15	2	1	COLOGNE	347	n/a	0	n/a	0	0	0	0	0.5869140625	0.422607421875	lower	../fonts/amplitud.ttf
374837	START	n/a	LTP247	ltpFR	15	n/a	n/a	n/a	n/a	n/a	n/a	n/a	n/a	n/a	n/a	n/a	n/a	n/a	n/a	n/a
375951	PROB	n/a	LTP247	ltpFR	15	n/a	n/a	n/a	n/a	n/a	n/a	18	9	4	5	n/a	n/a	n/a	n/a	n/a
377316	PROB	n/a	LTP247	ltpFR	15	n/a	n/a	n/a	n/a	n/a	n/a	17	7	8	2	n/a	n/a	n/a	n/a	n/a
378830	PROB	n/a	LTP247	ltpFR	15	n/a	n/a	n/a	n/a	n/a	n/a	18	6	4	8	n/a	n/a	n/a	n/a	n/a
380228	PROB	n/a	LTP247	ltpFR	15	n/a	n/a	n/a	n/a	n/a	n/a	23	9	6	8	n/a	n/a	n/a	n/a	n/a
381565	STOP	n/a	LTP247	ltpFR	15	n/a	n/a	n/a	n/a	n/a	n/a	n/a	n/a	n/a	n/a	n/a	n/a	n/a	n/a	n/a
383806	WORD	wordpools/wasnorm_wordpool_less_exclusions.txt	LTP247	ltpFR	15	2	0	GARLIC	624	n/a	0	n/a	0	0	0	1	0.412841796875	0.57763671875	upper	../fonts/zerothre.ttf
386819	START	n/a	LTP247	ltpFR	15	n/a	n/a	n/a	n/a	n/a	n/a	n/a	n/a	n/a	n/a	n/a	n/a	n/a	n/a	n/a
387933	PROB	n/a	LTP247	ltpFR	15	n/a	n/a	n/a	n/a	n/a	n/a	13	4	1	8	n/a	n/a	n/a	n/a	n/a
389847	PROB	n/a	LTP247	ltpFR	15	n/a	n/a	n/a	n/a	n/a	n/a	17	7	1	9	n/a	n/a	n/a	n/a	n/a
391645	PROB	n/a	LTP247	ltpFR	15	n/a	n/a	n/a	n/a	n/a	n/a	16	7	3	6	n/a	n/a	n/a	n/a	n/a
393192	PROB	n/a	LTP247	ltpFR	15	n/a	n/a	n/a	n/a	n/a	n/a	11	4	3	4	n/a	n/a	n/a	n/a	n/a
394413	STOP	n/a	LTP247	ltpFR	15	n/a	n/a	n/a	n/a	n/a	n/a	n/a	n/a	n/a	n/a	n/a	n/a	n/a	n/a	n/a
395822	WORD	wordpools/wasnorm_wordpool_less_exclusions.txt	LTP247	ltpFR	15	2	0	STRING	1394	n/a	0	n/a	0	0	0	1	0.412841796875	0.57763671875	upper	../fonts/zerothre.ttf
398834	START	n/a	LTP247	ltpFR	15	n/a	n/a	n/a	n/a	n/a	n/a	n/a	n/a	n/a	n/a	n/a	n/a	n/a	n/a	n/a
399816	PROB	n/a	LTP247	ltpFR	15	n/a	n/a	n/a	n/a	n/a	n/a	21	7	6	8	n/a	n/a	n/a	n/a	n/a
401498	PROB	n/a	LTP247	ltpFR	15	n/a	n/a	n/a	n/a	n/a	n/a	13	1	8	4	n/a	n/a	n/a	n/a	n/a
403593	PROB	n/a	LTP247	ltpFR	15	n/a	n/a	n/a	n/a	n/a	n/a	16	5	3	8	n/a	n/a	n/a	n/a	n/a
405757	STOP	n/a	LTP247	ltpFR	15	n/a	n/a	n/a	n/a	n/a	n/a	n/a	n/a	n/a	n/a	n/a	n/a	n/a	n/a	n/a
407920	WORD	wordpools/wasnorm_wordpool_less_exclusions.txt	LTP247	ltpFR	15	2	0	SALIVA	1226	n/a	0	n/a	0	0	0	1	0.412841796875	0.57763671875	upper	../fonts/zerothre.ttf
410933	START	n/a	LTP247	ltpFR	15	n/a	n/a	n/a	n/a	n/a	n/a	n/a	n/a	n/a	n/a	n/a	n/a	n/a	n/a	n/a
411948	PROB	n/a	LTP247	ltpFR	15	n/a	n/a	n/a	n/a	n/a	n/a	13	7	4	2	n/a	n/a	n/a	n/a	n/a
413978	PROB	n/a	LTP247	ltpFR	15	n/a	n/a	n/a	n/a	n/a	n/a	12	4	1	7	n/a	n/a	n/a	n/a	n/a
416158	PROB	n/a	LTP247	ltpFR	15	n/a	n/a	n/a	n/a	n/a	n/a	13	6	1	6	n/a	n/a	n/a	n/a	n/a
417989	STOP	n/a	LTP247	ltpFR	15	n/a	n/a	n/a	n/a	n/a	n/a	n/a	n/a	n/a	n/a	n/a	n/a	n/a	n/a	n/a
419802	WORD	wordpools/wasnorm_wordpool_less_exclusions.txt	LTP247	ltpFR	15	2	1	TURKEY	1520	n/a	1	n/a	0	0	0	0	0.5869140625	0.422607421875	lower	../fonts/amplitud.ttf
422815	START	n/a	LTP247	ltpFR	15	n/a	n/a	n/a	n/a	n/a	n/a	n/a	n/a	n/a	n/a	n/a	n/a	n/a	n/a	n/a
424013	PROB	n/a	LTP247	ltpFR	15	n/a	n/a	n/a	n/a	n/a	n/a	20	8	9	3	n/a	n/a	n/a	n/a	n/a
425677	PROB	n/a	LTP247	ltpFR	15	n/a	n/a	n/a	n/a	n/a	n/a	18	5	8	5	n/a	n/a	n/a	n/a	n/a
427042	PROB	n/a	LTP247	ltpFR	15	n/a	n/a	n/a	n/a	n/a	n/a	3	1	1	1	n/a	n/a	n/a	n/a	n/a
428306	PROB	n/a	LTP247	ltpFR	15	n/a	n/a	n/a	n/a	n/a	n/a	13	3	1	9	n/a	n/a	n/a	n/a	n/a
429821	STOP	n/a	LTP247	ltpFR	15	n/a	n/a	n/a	n/a	n/a	n/a	n/a	n/a	n/a	n/a	n/a	n/a	n/a	n/a	n/a
431668	WORD	wordpools/wasnorm_wordpool_less_exclusions.txt	LTP247	ltpFR	15	2	1	RULER	1216	n/a	0	n/a	0	0	0	0	0.5869140625	0.422607421875	lower	../fonts/amplitud.ttf
434681	START	n/a	LTP247	ltpFR	15	n/a	n/a	n/a	n/a	n/a	n/a	n/a	n/a	n/a	n/a	n/a	n/a	n/a	n/a	n/a
435745	PROB	n/a	LTP247	ltpFR	15	n/a	n/a	n/a	n/a	n/a	n/a	5	2	1	2	n/a	n/a	n/a	n/a	n/a
437110	PROB	n/a	LTP247	ltpFR	15	n/a	n/a	n/a	n/a	n/a	n/a	13	3	1	9	n/a	n/a	n/a	n/a	n/a
439773	PROB	n/a	LTP247	ltpFR	15	n/a	n/a	n/a	n/a	n/a	n/a	9	1	1	7	n/a	n/a	n/a	n/a	n/a
441205	STOP	n/a	LTP247	ltpFR	15	n/a	n/a	n/a	n/a	n/a	n/a	n/a	n/a	n/a	n/a	n/a	n/a	n/a	n/a	n/a
444599	REC_START	n/a	LTP247	ltpFR	15	2	n/a	n/a	n/a	n/a	n/a	n/a	0	0	0	n/a	n/a	n/a	n/a	n/a
447422	REC_WORD	wordpools/wasnorm_wordpool_less_exclusions.txt	LTP247	ltpFR	15	2	1	TURKEY	1520	n/a	1	n/a	0	0	0	n/a	n/a	n/a	n/a	n/a
448499	REC_WORD	wordpools/wasnorm_wordpool_less_exclusions.txt	LTP247	ltpFR	15	2	0	STRING	1394	n/a	0	n/a	0	0	0	n/a	n/a	n/a	n/a	n/a
450681	REC_WORD	wordpools/wasnorm_wordpool_less_exclusions.txt	LTP247	ltpFR	15	2	1	COLOGNE	347	n/a	0	n/a	0	0	0	n/a	n/a	n/a	n/a	n/a
452329	REC_WORD	wordpools/wasnorm_wordpool_less_exclusions.txt	LTP247	ltpFR	15	2	1	HARP	689	n/a	0	n/a	0	0	0	n/a	n/a	n/a	n/a	n/a
453378	REC_WORD	wordpools/wasnorm_wordpool_less_exclusions.txt	LTP247	ltpFR	15	2	1	COAL	332	n/a	1	n/a	0	0	0	n/a	n/a	n/a	n/a	n/a
454830	REC_WORD	wordpools/wasnorm_wordpool_less_exclusions.txt	LTP247	ltpFR	15	2	0	COMMUNITY	356	n/a	1	n/a	0	0	0	n/a	n/a	n/a	n/a	n/a
455762	REC_WORD	wordpools/wasnorm_wordpool_less_exclusions.txt	LTP247	ltpFR	15	2	0	MINER	896	n/a	1	n/a	0	0	0	n/a	n/a	n/a	n/a	n/a
456729	REC_WORD	wordpools/wasnorm_wordpool_less_exclusions.txt	LTP247	ltpFR	15	2	0	CITIZEN	312	n/a	1	n/a	0	0	0	n/a	n/a	n/a	n/a	n/a
457964	REC_WORD	wordpools/wasnorm_wordpool_less_exclusions.txt	LTP247	ltpFR	15	2	1	JUGGLER	763	n/a	1	n/a	0	0	0	n/a	n/a	n/a	n/a	n/a
459009	REC_WORD	wordpools/wasnorm_wordpool_less_exclusions.txt	LTP247	ltpFR	15	2	1	CROWN	415	n/a	0	n/a	0	0	0	n/a	n/a	n/a	n/a	n/a
460234	REC_WORD	wordpools/wasnorm_wordpool_less_exclusions.txt	LTP247	ltpFR	15	2	0	TONGUE	1479	n/a	0	n/a	0	0	0	n/a	n/a	n/a	n/a	n/a
531003	WORD	wordpools/wasnorm_wordpool_less_exclusions.txt	LTP247	ltpFR	15	3	1	ELEPHANT	523	n/a	1	n/a	0	0	0	0	0.5869140625	0.422607421875	lower	../fonts/amplitud.ttf
535130	WORD	wordpools/wasnorm_wordpool_less_exclusions.txt	LTP247	ltpFR	15	3	1	JOINT	758	n/a	0	n/a	0	0	0	0	0.5869140625	0.422607421875	lower	../fonts/amplitud.ttf
538958	WORD	wordpools/wasnorm_wordpool_less_exclusions.txt	LTP247	ltpFR	15	3	1	BONE	148	n/a	0	n/a	0	0	0	0	0.5869140625	0.422607421875	lower	../fonts/amplitud.ttf
542802	WORD	wordpools/wasnorm_wordpool_less_exclusions.txt	LTP247	ltpFR	15	3	1	MACHINE	852	n/a	0	n/a	0	0	0	0	0.5869140625	0.422607421875	lower	../fonts/amplitud.ttf
546829	WORD	wordpools/wasnorm_wordpool_less_exclusions.txt	LTP247	ltpFR	15	3	1	CONTRACTOR	369	n/a	1	n/a	0	0	0	0	0.5869140625	0.422607421875	lower	../fonts/amplitud.ttf
550724	WORD	wordpools/wasnorm_wordpool_less_exclusions.txt	LTP247	ltpFR	15	3	1	SKYSCRAPER	1322	n/a	0	n/a	0	0	0	0	0.5869140625	0.422607421875	lower	../fonts/amplitud.ttf
554867	WORD	wordpools/wasnorm_wordpool_less_exclusions.txt	LTP247	ltpFR	15	3	1	CREATURE	403	n/a	1	n/a	0	0	0	0	0.5869140625	0.422607421875	lower	../fonts/amplitud.ttf
558811	WORD	wordpools/wasnorm_wordpool_less_exclusions.txt	LTP247	ltpFR	15	3	1	HOUSE	725	n/a	0	n/a	0	0	0	0	0.5869140625	0.422607421875	lower	../fonts/amplitud.ttf
562639	WORD	wordpools/wasnorm_wordpool_less_exclusions.txt	LTP247	ltpFR	15	3	1	ANIMAL	23	n/a	1	n/a	0	0	0	0	0.5869140625	0.422607421875	lower	../fonts/amplitud.ttf
566800	WORD	wordpools/wasnorm_wordpool_less_exclusions.txt	LTP247	ltpFR	15	3	1	PISTON	1076	n/a	0	n/a	0	0	0	0	0.5869140625	0.422607421875	lower	../fonts/amplitud.ttf
570777	WORD	wordpools/wasnorm_wordpool_less_exclusions.txt	LTP247	ltpFR	15	3	1	DASHBOARD	441	n/a	0	n/a	0	0	0	0	0.5869140625	0.422607421875	lower	../fonts/amplitud.ttf
574638	WORD	wordpools/wasnorm_wordpool_less_exclusions.txt	LTP247	ltpFR	15	3	1	HANDBAG	684	n/a	0	n/a	0	0	0	0	0.5869140625	0.422607421875	lower	../fonts/amplitud.ttf
578533	WORD	wordpools/wasnorm_wordpool_less_exclusions.txt	LTP247	ltpFR	15	3	1	AUTHOR	61	n/a	1	n/a	0	0	0	0	0.5869140625	0.422607421875	lower	../fonts/amplitud.ttf
582659	WORD	wordpools/wasnorm_wordpool_less_exclusions.txt	LTP247	ltpFR	15	3	1	ARCHITECT	36	n/a	1	n/a	0	0	0	0	0.5869140625	0.422607421875	lower	../fonts/amplitud.ttf
586653	WORD	wordpools/wasnorm_wordpool_less_exclusions.txt	LTP247	ltpFR	15	3	1	SERPENT	1270	n/a	1	n/a	0	0	0	0	0.5869140625	0.422607421875	lower	../fonts/amplitud.ttf
590532	WORD	wordpools/wasnorm_wordpool_less_exclusions.txt	LTP247	ltpFR	15	3	1	BUG	187	n/a	1	n/a	0	0	0	0	0.5869140625	0.422607421875	lower	../fonts/amplitud.ttf
593544	START	n/a	LTP247	ltpFR	15	n/a	n/a	n/a	n/a	n/a	n/a	n/a	n/a	n/a	n/a	n/a	n/a	n/a	n/a	n/a
594425	PROB	n/a	LTP247	ltpFR	15	n/a	n/a	n/a	n/a	n/a	n/a	15	2	7	6	n/a	n/a	n/a	n/a	n/a
596239	PROB	n/a	LTP247	ltpFR	15	n/a	n/a	n/a	n/a	n/a	n/a	15	4	2	9	n/a	n/a	n/a	n/a	n/a
598269	PROB	n/a	LTP247	ltpFR	15	n/a	n/a	n/a	n/a	n/a	n/a	20	3	9	8	n/a	n/a	n/a	n/a	n/a
599850	PROB	n/a	LTP247	ltpFR	15	n/a	n/a	n/a	n/a	n/a	n/a	12	5	2	5	n/a	n/a	n/a	n/a	n/a
601189	STOP	n/a	LTP247	ltpFR	15	n/a	n/a	n/a	n/a	n/a	n/a	n/a	n/a	n/a	n/a	n/a	n/a	n/a	n/a	n/a
603445	REC_START	n/a	LTP247	ltpFR	15	3	n/a	n/a	n/a	n/a	n/a	n/a	0	0	0	n/a	n/a	n/a	n/a	n/a
605718	REC_WORD	wordpools/wasnorm_wordpool_less_exclusions.txt	LTP247	ltpFR	15	3	1	BUG	187	n/a	1	n/a	0	0	0	n/a	n/a	n/a	n/a	n/a
606441	REC_WORD	wordpools/wasnorm_wordpool_less_exclusions.txt	LTP247	ltpFR	15	3	1	SERPENT	1270	n/a	1	n/a	0	0	0	n/a	n/a	n/a	n/a	n/a
607859	REC_WORD	wordpools/wasnorm_wordpool_less_exclusions.txt	LTP247	ltpFR	15	3	1	ARCHITECT	36	n/a	1	n/a	0	0	0	n/a	n/a	n/a	n/a	n/a
609016	REC_WORD	wordpools/wasnorm_wordpool_less_exclusions.txt	LTP247	ltpFR	15	3	1	HOUSE	725	n/a	0	n/a	0	0	0	n/a	n/a	n/a	n/a	n/a
610430	REC_WORD	wordpools/wasnorm_wordpool_less_exclusions.txt	LTP247	ltpFR	15	3	1	CONTRACTOR	369	n/a	1	n/a	0	0	0	n/a	n/a	n/a	n/a	n/a
611631	REC_WORD	wordpools/wasnorm_wordpool_less_exclusions.txt	LTP247	ltpFR	15	3	1	SKYSCRAPER	1322	n/a	0	n/a	0	0	0	n/a	n/a	n/a	n/a	n/a
612631	REC_WORD_VV	wordpools/wasnorm_wordpool_less_exclusions.txt	LTP247	ltpFR	15	3	n/a	<>	-1	n/a	n/a	n/a	0	0	0	n/a	n/a	n/a	n/a	n/a
613487	REC_WORD	wordpools/wasnorm_wordpool_less_exclusions.txt	LTP247	ltpFR	15	3	1	ELEPHANT	523	n/a	1	n/a	0	0	0	n/a	n/a	n/a	n/a	n/a
614654	REC_WORD	wordpools/wasnorm_wordpool_less_exclusions.txt	LTP247	ltpFR	15	3	1	JOINT	758	n/a	0	n/a	0	0	0	n/a	n/a	n/a	n/a	n/a
616105	REC_WORD	wordpools/wasnorm_wordpool_less_exclusions.txt	LTP247	ltpFR	15	3	1	BONE	148	n/a	0	n/a	0	0	0	n/a	n/a	n/a	n/a	n/a
685573	START	n/a	LTP247	ltpFR	15	n/a	n/a	n/a	n/a	n/a	n/a	n/a	n/a	n/a	n/a	n/a	n/a	n/a	n/a	n/a
687087	PROB	n/a	LTP247	ltpFR	15	n/a	n/a	n/a	n/a	n/a	n/a	1	6	5	7	n/a	n/a	n/a	n/a	n/a
688618	PROB	n/a	LTP247	ltpFR	15	n/a	n/a	n/a	n/a	n/a	n/a	18	8	3	7	n/a	n/a	n/a	n/a	n/a
690648	PROB	n/a	LTP247	ltpFR	15	n/a	n/a	n/a	n/a	n/a	n/a	11	5	5	1	n/a	n/a	n/a	n/a	n/a
691830	PROB	n/a	LTP247	ltpFR	15	n/a	n/a	n/a	n/a	n/a	n/a	17	4	6	7	n/a	n/a	n/a	n/a	n/a
693245	STOP	n/a	LTP247	ltpFR	15	n/a	n/a	n/a	n/a	n/a	n/a	n/a	n/a	n/a	n/a	n/a	n/a	n/a	n/a	n/a
694442	WORD	wordpools/wasnorm_wordpool_less_exclusions.txt	LTP247	ltpFR	15	4	1	STRAWBERRY	1391	n/a	0	n/a	0	0	0	0	0.5869140625	0.422607421875	lower	../fonts/amplitud.ttf
697455	START	n/a	LTP247	ltpFR	15	n/a	n/a	n/a	n/a	n/a	n/a	n/a	n/a	n/a	n/a	n/a	n/a	n/a	n/a	n/a
698653	PROB	n/a	LTP247	ltpFR	15	n/a	n/a	n/a	n/a	n/a	n/a	17	5	5	7	n/a	n/a	n/a	n/a	n/a
700101	PROB	n/a	LTP247	ltpFR	15	n/a	n/a	n/a	n/a	n/a	n/a	23	9	7	7	n/a	n/a	n/a	n/a	n/a
701632	PROB	n/a	LTP247	ltpFR	15	n/a	n/a	n/a	n/a	n/a	n/a	16	4	5	7	n/a	n/a	n/a	n/a	n/a
703046	PROB	n/a	LTP247	ltpFR	15	n/a	n/a	n/a	n/a	n/a	n/a	21	9	6	6	n/a	n/a	n/a	n/a	n/a
704333	STOP	n/a	LTP247	ltpFR	15	n/a	n/a	n/a	n/a	n/a	n/a	n/a	n/a	n/a	n/a	n/a	n/a	n/a	n/a	n/a
706408	WORD	wordpools/wasnorm_wordpool_less_exclusions.txt	LTP247	ltpFR	15	4	1	WHEEL	1603	n/a	0	n/a	0	0	0	0	0.5869140625	0.422607421875	lower	../fonts/amplitud.ttf
709420	START	n/a	LTP247	ltpFR	15	n/a	n/a	n/a	n/a	n/a	n/a	n/a	n/a	n/a	n/a	n/a	n/a	n/a	n/a	n/a
710601	PROB	n/a	LTP247	ltpFR	15	n/a	n/a	n/a	n/a	n/a	n/a	13	5	7	1	n/a	n/a	n/a	n/a	n/a
712332	PROB	n/a	LTP247	ltpFR	15	n/a	n/a	n/a	n/a	n/a	n/a	5	2	1	2	n/a	n/a	n/a	n/a	n/a
714063	PROB	n/a	LTP247	ltpFR	15	n/a	n/a	n/a	n/a	n/a	n/a	19	7	3	9	n/a	n/a	n/a	n/a	n/a
715760	PROB	n/a	LTP247	ltpFR	15	n/a	n/a	n/a	n/a	n/a	n/a	18	6	3	9	n/a	n/a	n/a	n/a	n/a
717261	STOP	n/a	LTP247	ltpFR	15	n/a	n/a	n/a	n/a	n/a	n/a	n/a	n/a	n/a	n/a	n/a	n/a	n/a	n/a	n/a
718456	WORD	wordpools/wasnorm_wordpool_less_exclusions.txt	LTP247	ltpFR	15	4	1	LETTUCE	814	n/a	0	n/a	0	0	0	0	0.5869140625	0.422607421875	lower	../fonts/amplitud.ttf
721469	START	n/a	LTP247	ltpFR	15	n/a	n/a	n/a	n/a	n/a	n/a	n/a	n/a	n/a	n/a	n/a	n/a	n/a	n/a	n/a
722467	PROB	n/a	LTP247	ltpFR	15	n/a	n/a	n/a	n/a	n/a	n/a	13	8	1	4	n/a	n/a	n/a	n/a	n/a
724431	PROB	n/a	LTP247	ltpFR	15	n/a	n/a	n/a	n/a	n/a	n/a	9	6	2	1	n/a	n/a	n/a	n/a	n/a
726278	PROB	n/a	LTP247	ltpFR	15	n/a	n/a	n/a	n/a	n/a	n/a	10	2	3	5	n/a	n/a	n/a	n/a	n/a
727726	PROB	n/a	LTP247	ltpFR	15	n/a	n/a	n/a	n/a	n/a	n/a	14	7	3	4	n/a	n/a	n/a	n/a	n/a
729165	STOP	n/a	LTP247	ltpFR	15	n/a	n/a	n/a	n/a	n/a	n/a	n/a	n/a	n/a	n/a	n/a	n/a	n/a	n/a	n/a
730539	WORD	wordpools/wasnorm_wordpool_less_exclusions.txt	LTP247	ltpFR	15	4	1	PASTRY	1022	n/a	0	n/a	0	0	0	0	0.5869140625	0.422607421875	lower	../fonts/amplitud.ttf
733551	START	n/a	LTP247	ltpFR	15	n/a	n/a	n/a	n/a	n/a	n/a	n/a	n/a	n/a	n/a	n/a	n/a	n/a	n/a	n/a
734666	PROB	n/a	LTP247	ltpFR	15	n/a	n/a	n/a	n/a	n/a	n/a	19	8	8	3	n/a	n/a	n/a	n/a	n/a
736063	PROB	n/a	LTP247	ltpFR	15	n/a	n/a	n/a	n/a	n/a	n/a	19	3	9	7	n/a	n/a	n/a	n/a	n/a
738393	PROB	n/a	LTP247	ltpFR	15	n/a	n/a	n/a	n/a	n/a	n/a	9	1	7	1	n/a	n/a	n/a	n/a	n/a
739791	PROB	n/a	LTP247	ltpFR	15	n/a	n/a	n/a	n/a	n/a	n/a	16	8	7	1	n/a	n/a	n/a	n/a	n/a
741045	STOP	n/a	LTP247	ltpFR	15	n/a	n/a	n/a	n/a	n/a	n/a	n/a	n/a	n/a	n/a	n/a	n/a	n/a	n/a	n/a
742720	WORD	wordpools/wasnorm_wordpool_less_exclusions.txt	LTP247	ltpFR	15	4	1	BAKER	71	n/a	1	n/a	0	0	0	0	0.5869140625	0.422607421875	lower	../fonts/amplitud.ttf
745733	START	n/a	LTP247	ltpFR	15	n/a	n/a	n/a	n/a	n/a	n/a	n/a	n/a	n/a	n/a	n/a	n/a	n/a	n/a	n/a
746931	PROB	n/a	LTP247	ltpFR	15	n/a	n/a	n/a	n/a	n/a	n/a	3	1	1	1	n/a	n/a	n/a	n/a	n/a
748179	PROB	n/a	LTP247	ltpFR	15	n/a	n/a	n/a	n/a	n/a	n/a	20	6	5	9	n/a	n/a	n/a	n/a	n/a
749726	PROB	n/a	LTP247	ltpFR	15	n/a	n/a	n/a	n/a	n/a	n/a	9	2	1	6	n/a	n/a	n/a	n/a	n/a
751108	PROB	n/a	LTP247	ltpFR	15	n/a	n/a	n/a	n/a	n/a	n/a	18	7	6	5	n/a	n/a	n/a	n/a	n/a
752413	STOP	n/a	LTP247	ltpFR	15	n/a	n/a	n/a	n/a	n/a	n/a	n/a	n/a	n/a	n/a	n/a	n/a	n/a	n/a	n/a
754752	WORD	wordpools/wasnorm_wordpool_less_exclusions.txt	LTP247	ltpFR	15	4	0	MONK	910	n/a	1	n/a	0	0	0	1	0.412841796875	0.57763671875	upper	../fonts/zerothre.ttf
757765	START	n/a	LTP247	ltpFR	15	n/a	n/a	n/a	n/a	n/a	n/a	n/a	n/a	n/a	n/a	n/a	n/a	n/a	n/a	n/a
758746	PROB	n/a	LTP247	ltpFR	15	n/a	n/a	n/a	n/a	n/a	n/a	23	9	7	7	n/a	n/a	n/a	n/a	n/a
760594	PROB	n/a	LTP247	ltpFR	15	n/a	n/a	n/a	n/a	n/a	n/a	16	5	8	3	n/a	n/a	n/a	n/a	n/a
762208	PROB	n/a	LTP247	ltpFR	15	n/a	n/a	n/a	n/a	n/a	n/a	10	2	6	2	n/a	n/a	n/a	n/a	n/a
765764	STOP	n/a	LTP247	ltpFR	15	n/a	n/a	n/a	n/a	n/a	n/a	n/a	n/a	n/a	n/a	n/a	n/a	n/a	n/a	n/a
766684	WORD	wordpools/wasnorm_wordpool_less_exclusions.txt	LTP247	ltpFR	15	4	0	SINK	1309	n/a	1	n/a	0	0	0	1	0.412841796875	0.57763671875	upper	../fonts/zerothre.ttf
769697	START	n/a	LTP247	ltpFR	15	n/a	n/a	n/a	n/a	n/a	n/a	n/a	n/a	n/a	n/a	n/a	n/a	n/a	n/a	n/a
770579	PROB	n/a	LTP247	ltpFR	15	n/a	n/a	n/a	n/a	n/a	n/a	17	4	7	6	n/a	n/a	n/a	n/a	n/a
772527	PROB	n/a	LTP247	ltpFR	15	n/a	n/a	n/a	n/a	n/a	n/a	12	4	2	6	n/a	n/a	n/a	n/a	n/a
774722	PROB	n/a	LTP247	ltpFR	15	n/a	n/a	n/a	n/a	n/a	n/a	16	5	7	4	n/a	n/a	n/a	n/a	n/a
776157	STOP	n/a	LTP247	ltpFR	15	n/a	n/a	n/a	n/a	n/a	n/a	n/a	n/a	n/a	n/a	n/a	n/a	n/a	n/a	n/a
778916	WORD	wordpools/wasnorm_wordpool_less_exclusions.txt	LTP247	ltpFR	15	4	0	LAPEL	800	n/a	0	n/a	0	0	0	1	0.412841796875	0.57763671875	upper	../fonts/zerothre.ttf
781929	START	n/a	LTP247	ltpFR	15	n/a	n/a	n/a	n/a	n/a	n/a	n/a	n/a	n/a	n/a	n/a	n/a	n/a	n/a	n/a
782860	PROB	n/a	LTP247	ltpFR	15	n/a	n/a	n/a	n/a	n/a	n/a	26	9	9	8	n/a	n/a	n/a	n/a	n/a
784674	PROB	n/a	LTP247	ltpFR	15	n/a	n/a	n/a	n/a	n/a	n/a	10	1	5	4	n/a	n/a	n/a	n/a	n/a
786539	PROB	n/a	LTP247	ltpFR	15	n/a	n/a	n/a	n/a	n/a	n/a	19	8	2	9	n/a	n/a	n/a	n/a	n/a
787853	PROB	n/a	LTP247	ltpFR	15	n/a	n/a	n/a	n/a	n/a	n/a	8	4	2	2	n/a	n/a	n/a	n/a	n/a
789141	STOP	n/a	LTP247	ltpFR	15	n/a	n/a	n/a	n/a	n/a	n/a	n/a	n/a	n/a	n/a	n/a	n/a	n/a	n/a	n/a
791081	WORD	wordpools/wasnorm_wordpool_less_exclusions.txt	LTP247	ltpFR	15	4	1	SHIRT	1287	n/a	0	n/a	0	0	0	0	0.5869140625	0.422607421875	lower	../fonts/amplitud.ttf
794094	START	n/a	LTP247	ltpFR	15	n/a	n/a	n/a	n/a	n/a	n/a	n/a	n/a	n/a	n/a	n/a	n/a	n/a	n/a	n/a
795175	PROB	n/a	LTP247	ltpFR	15	n/a	n/a	n/a	n/a	n/a	n/a	22	6	9	7	n/a	n/a	n/a	n/a	n/a
796939	PROB	n/a	LTP247	ltpFR	15	n/a	n/a	n/a	n/a	n/a	n/a	18	1	6	6	n/a	n/a	n/a	n/a	n/a
798570	PROB	n/a	LTP247	ltpFR	15	n/a	n/a	n/a	n/a	n/a	n/a	16	2	5	9	n/a	n/a	n/a	n/a	n/a
800981	STOP	n/a	LTP247	ltpFR	15	n/a	n/a	n/a	n/a	n/a	n/a	n/a	n/a	n/a	n/a	n/a	n/a	n/a	n/a	n/a
803163	WORD	wordpools/wasnorm_wordpool_less_exclusions.txt	LTP247	ltpFR	15	4	1	LIME	823	n/a	0	n/a	0	0	0	0	0.5869140625	0.422607421875	lower	../fonts/amplitud.ttf
806176	START	n/a	LTP247	ltpFR	15	n/a	n/a	n/a	n/a	n/a	n/a	n/a	n/a	n/a	n/a	n/a	n/a	n/a	n/a	n/a
807191	PROB	n/a	LTP247	ltpFR	15	n/a	n/a	n/a	n/a	n/a	n/a	6	2	1	3	n/a	n/a	n/a	n/a	n/a
808988	PROB	n/a	LTP247	ltpFR	15	n/a	n/a	n/a	n/a	n/a	n/a	15	1	6	8	n/a	n/a	n/a	n/a	n/a
810868	PROB	n/a	LTP247	ltpFR	15	n/a	n/a	n/a	n/a	n/a	n/a	20	9	3	8	n/a	n/a	n/a	n/a	n/a
812350	PROB	n/a	LTP247	ltpFR	15	n/a	n/a	n/a	n/a	n/a	n/a	16	1	9	6	n/a	n/a	n/a	n/a	n/a
813797	STOP	n/a	LTP247	ltpFR	15	n/a	n/a	n/a	n/a	n/a	n/a	n/a	n/a	n/a	n/a	n/a	n/a	n/a	n/a	n/a
815229	WORD	wordpools/wasnorm_wordpool_less_exclusions.txt	LTP247	ltpFR	15	4	1	CHIPMUNK	304	n/a	1	n/a	0	0	0	0	0.5869140625	0.422607421875	lower	../fonts/amplitud.ttf
818241	START	n/a	LTP247	ltpFR	15	n/a	n/a	n/a	n/a	n/a	n/a	n/a	n/a	n/a	n/a	n/a	n/a	n/a	n/a	n/a
819289	PROB	n/a	LTP247	ltpFR	15	n/a	n/a	n/a	n/a	n/a	n/a	18	3	6	9	n/a	n/a	n/a	n/a	n/a
820770	PROB	n/a	LTP247	ltpFR	15	n/a	n/a	n/a	n/a	n/a	n/a	12	3	3	6	n/a	n/a	n/a	n/a	n/a
822867	PROB	n/a	LTP247	ltpFR	15	n/a	n/a	n/a	n/a	n/a	n/a	14	1	4	9	n/a	n/a	n/a	n/a	n/a
824949	STOP	n/a	LTP247	ltpFR	15	n/a	n/a	n/a	n/a	n/a	n/a	n/a	n/a	n/a	n/a	n/a	n/a	n/a	n/a	n/a
827128	WORD	wordpools/wasnorm_wordpool_less_exclusions.txt	LTP247	ltpFR	15	4	0	MARSH	874	n/a	1	n/a	0	0	0	1	0.412841796875	0.57763671875	upper	../fonts/zerothre.ttf
830140	START	n/a	LTP247	ltpFR	15	n/a	n/a	n/a	n/a	n/a	n/a	n/a	n/a	n/a	n/a	n/a	n/a	n/a	n/a	n/a
831138	PROB	n/a	LTP247	ltpFR	15	n/a	n/a	n/a	n/a	n/a	n/a	14	3	6	5	n/a	n/a	n/a	n/a	n/a
832619	PROB	n/a	LTP247	ltpFR	15	n/a	n/a	n/a	n/a	n/a	n/a	4	1	2	1	n/a	n/a	n/a	n/a	n/a
834134	PROB	n/a	LTP247	ltpFR	15	n/a	n/a	n/a	n/a	n/a	n/a	10	2	1	7	n/a	n/a	n/a	n/a	n/a
836097	PROB	n/a	LTP247	ltpFR	15	n/a	n/a	n/a	n/a	n/a	n/a	18	6	9	3	n/a	n/a	n/a	n/a	n/a
837405	STOP	n/a	LTP247	ltpFR	15	n/a	n/a	n/a	n/a	n/a	n/a	n/a	n/a	n/a	n/a	n/a	n/a	n/a	n/a	n/a
839126	WORD	wordpools/wasnorm_wordpool_less_exclusions.txt	LTP247	ltpFR	15	4	0	SPIT	1354	n/a	0	n/a	0	0	0	1	0.412841796875	0.57763671875	upper	../fonts/zerothre.ttf
842139	START	n/a	LTP247	ltpFR	15	n/a	n/a	n/a	n/a	n/a	n/a	n/a	n/a	n/a	n/a	n/a	n/a	n/a	n/a	n/a
843237	PROB	n/a	LTP247	ltpFR	15	n/a	n/a	n/a	n/a	n/a	n/a	18	4	9	5	n/a	n/a	n/a	n/a	n/a
844968	PROB	n/a	LTP247	ltpFR	15	n/a	n/a	n/a	n/a	n/a	n/a	17	9	7	1	n/a	n/a	n/a	n/a	n/a
846682	PROB	n/a	LTP247	ltpFR	15	n/a	n/a	n/a	n/a	n/a	n/a	19	9	9	1	n/a	n/a	n/a	n/a	n/a
848030	PROB	n/a	LTP247	ltpFR	15	n/a	n/a	n/a	n/a	n/a	n/a	21	9	5	7	n/a	n/a	n/a	n/a	n/a
849629	STOP	n/a	LTP247	ltpFR	15	n/a	n/a	n/a	n/a	n/a	n/a	n/a	n/a	n/a	n/a	n/a	n/a	n/a	n/a	n/a
851175	WORD	wordpools/wasnorm_wordpool_less_exclusions.txt	LTP247	ltpFR	15	4	0	VESSEL	1558	n/a	1	n/a	0	0	0	1	0.412841796875	0.57763671875	upper	../fonts/zerothre.ttf
854187	START	n/a	LTP247	ltpFR	15	n/a	n/a	n/a	n/a	n/a	n/a	n/a	n/a	n/a	n/a	n/a	n/a	n/a	n/a	n/a
855385	PROB	n/a	LTP247	ltpFR	15	n/a	n/a	n/a	n/a	n/a	n/a	23	7	9	7	n/a	n/a	n/a	n/a	n/a
857133	PROB	n/a	LTP247	ltpFR	15	n/a	n/a	n/a	n/a	n/a	n/a	15	6	1	8	n/a	n/a	n/a	n/a	n/a
858814	PROB	n/a	LTP247	ltpFR	15	n/a	n/a	n/a	n/a	n/a	n/a	18	7	4	7	n/a	n/a	n/a	n/a	n/a
860545	PROB	n/a	LTP247	ltpFR	15	n/a	n/a	n/a	n/a	n/a	n/a	14	2	8	4	n/a	n/a	n/a	n/a	n/a
861925	STOP	n/a	LTP247	ltpFR	15	n/a	n/a	n/a	n/a	n/a	n/a	n/a	n/a	n/a	n/a	n/a	n/a	n/a	n/a	n/a
863190	WORD	wordpools/wasnorm_wordpool_less_exclusions.txt	LTP247	ltpFR	15	4	0	FRIAR	605	n/a	1	n/a	0	0	0	1	0.412841796875	0.57763671875	upper	../fonts/zerothre.ttf
866203	START	n/a	LTP247	ltpFR	15	n/a	n/a	n/a	n/a	n/a	n/a	n/a	n/a	n/a	n/a	n/a	n/a	n/a	n/a	n/a
867401	PROB	n/a	LTP247	ltpFR	15	n/a	n/a	n/a	n/a	n/a	n/a	20	4	9	7	n/a	n/a	n/a	n/a	n/a
869997	PROB	n/a	LTP247	ltpFR	15	n/a	n/a	n/a	n/a	n/a	n/a	12	7	3	2	n/a	n/a	n/a	n/a	n/a
871245	PROB	n/a	LTP247	ltpFR	15	n/a	n/a	n/a	n/a	n/a	n/a	16	4	3	9	n/a	n/a	n/a	n/a	n/a
873005	STOP	n/a	LTP247	ltpFR	15	n/a	n/a	n/a	n/a	n/a	n/a	n/a	n/a	n/a	n/a	n/a	n/a	n/a	n/a	n/a
875256	WORD	wordpools/wasnorm_wordpool_less_exclusions.txt	LTP247	ltpFR	15	4	0	ANTEATER	26	n/a	1	n/a	0	0	0	1	0.412841796875	0.57763671875	upper	../fonts/zerothre.ttf
878268	START	n/a	LTP247	ltpFR	15	n/a	n/a	n/a	n/a	n/a	n/a	n/a	n/a	n/a	n/a	n/a	n/a	n/a	n/a	n/a
879133	PROB	n/a	LTP247	ltpFR	15	n/a	n/a	n/a	n/a	n/a	n/a	15	7	4	4	n/a	n/a	n/a	n/a	n/a
881047	PROB	n/a	LTP247	ltpFR	15	n/a	n/a	n/a	n/a	n/a	n/a	10	2	7	1	n/a	n/a	n/a	n/a	n/a
883061	PROB	n/a	LTP247	ltpFR	15	n/a	n/a	n/a	n/a	n/a	n/a	11	1	9	1	n/a	n/a	n/a	n/a	n/a
884642	PROB	n/a	LTP247	ltpFR	15	n/a	n/a	n/a	n/a	n/a	n/a	18	5	8	5	n/a	n/a	n/a	n/a	n/a
885965	STOP	n/a	LTP247	ltpFR	15	n/a	n/a	n/a	n/a	n/a	n/a	n/a	n/a	n/a	n/a	n/a	n/a	n/a	n/a	n/a
888120	REC_START	n/a	LTP247	ltpFR	15	4	n/a	n/a	n/a	n/a	n/a	n/a	0	0	0	n/a	n/a	n/a	n/a	n/a
890446	REC_WORD	wordpools/wasnorm_wordpool_less_exclusions.txt	LTP247	ltpFR	15	4	0	FRIAR	605	n/a	1	n/a	0	0	0	n/a	n/a	n/a	n/a	n/a
891557	REC_WORD	wordpools/wasnorm_wordpool_less_exclusions.txt	LTP247	ltpFR	15	4	0	ANTEATER	26	n/a	1	n/a	0	0	0	n/a	n/a	n/a	n/a	n/a
892442	REC_WORD	wordpools/wasnorm_wordpool_less_exclusions.txt	LTP247	ltpFR	15	4	0	MONK	910	n/a	1	n/a	0	0	0	n/a	n/a	n/a	n/a	n/a
893359	REC_WORD	wordpools/wasnorm_wordpool_less_exclusions.txt	LTP247	ltpFR	15	4	1	SHIRT	1287	n/a	0	n/a	0	0	0	n/a	n/a	n/a	n/a	n/a
894520	REC_WORD	wordpools/wasnorm_wordpool_less_exclusions.txt	LTP247	ltpFR	15	4	0	LAPEL	800	n/a	0	n/a	0	0	0	n/a	n/a	n/a	n/a	n/a
895727	REC_WORD	wordpools/wasnorm_wordpool_less_exclusions.txt	LTP247	ltpFR	15	4	1	STRAWBERRY	1391	n/a	0	n/a	0	0	0	n/a	n/a	n/a	n/a	n/a
896835	REC_WORD	wordpools/wasnorm_wordpool_less_exclusions.txt	LTP247	ltpFR	15	4	0	CABBAGE	210	n/a	0	n/a	0	0	0	n/a	n/a	n/a	n/a	n/a
897776	REC_WORD	wordpools/wasnorm_wordpool_less_exclusions.txt	LTP247	ltpFR	15	4	1	WHEEL	1603	n/a	0	n/a	0	0	0	n/a	n/a	n/a	n/a	n/a
898789	REC_WORD	wordpools/wasnorm_wordpool_less_exclusions.txt	LTP247	ltpFR	15	4	1	PASTRY	1022	n/a	0	n/a	0	0	0	n/a	n/a	n/a	n/a	n/a
899867	REC_WORD	wordpools/wasnorm_wordpool_less_exclusions.txt	LTP247	ltpFR	15	4	1	BAKER	71	n/a	1	n/a	0	0	0	n/a	n/a	n/a	n/a	n/a
975090	WORD	wordpools/wasnorm_wordpool_less_exclusions.txt	LTP247	ltpFR	15	5	0	SHELL	1281	n/a	0	n/a	0	0	0	1	0.412841796875	0.57763671875	upper	../fonts/zerothre.ttf
979200	WORD	wordpools/wasnorm_wordpool_less_exclusions.txt	LTP247	ltpFR	15	5	0	OYSTER	995	n/a	0	n/a	0	0	0	1	0.412841796875	0.57763671875	upper	../fonts/zerothre.ttf
983045	WORD	wordpools/wasnorm_wordpool_less_exclusions.txt	LTP247	ltpFR	15	5	1	ABDOMEN	1	n/a	0	n/a	0	0	0	0	0.5869140625	0.422607421875	lower	../fonts/amplitud.ttf
987105	WORD	wordpools/wasnorm_wordpool_less_exclusions.txt	LTP247	ltpFR	15	5	1	AGENT	10	n/a	1	n/a	0	0	0	0	0.5869140625	0.422607421875	lower	../fonts/amplitud.ttf
991166	WORD	wordpools/wasnorm_wordpool_less_exclusions.txt	LTP247	ltpFR	15	5	1	CARROT	249	n/a	0	n/a	0	0	0	0	0.5869140625	0.422607421875	lower	../fonts/amplitud.ttf
995027	WORD	wordpools/wasnorm_wordpool_less_exclusions.txt	LTP247	ltpFR	15	5	1	STEW	1380	n/a	0	n/a	0	0	0	0	0.5869140625	0.422607421875	lower	../fonts/amplitud.ttf
998938	WORD	wordpools/wasnorm_wordpool_less_exclusions.txt	LTP247	ltpFR	15	5	1	CHIME	300	n/a	0	n/a	0	0	0	0	0.5869140625	0.422607421875	lower	../fonts/amplitud.ttf
1003031	WORD	wordpools/wasnorm_wordpool_less_exclusions.txt	LTP247	ltpFR	15	5	0	RECEIPT	1173	n/a	0	n/a	0	0	0	1	0.412841796875	0.57763671875	upper	../fonts/zerothre.ttf
1007225	WORD	wordpools/wasnorm_wordpool_less_exclusions.txt	LTP247	ltpFR	15	5	0	BILL	126	n/a	0	n/a	0	0	0	1	0.412841796875	0.57763671875	upper	../fonts/zerothre.ttf
1011402	WORD	wordpools/wasnorm_wordpool_less_exclusions.txt	LTP247	ltpFR	15	5	1	CHAIN	273	n/a	0	n/a	0	0	0	0	0.5869140625	0.422607421875	lower	../fonts/amplitud.ttf
1015596	WORD	wordpools/wasnorm_wordpool_less_exclusions.txt	LTP247	ltpFR	15	5	1	PANTS	1010	n/a	0	n/a	0	0	0	0	0.5869140625	0.422607421875	lower	../fonts/amplitud.ttf
1019590	WORD	wordpools/wasnorm_wordpool_less_exclusions.txt	LTP247	ltpFR	15	5	1	MANAGER	863	n/a	1	n/a	0	0	0	0	0.5869140625	0.422607421875	lower	../fonts/amplitud.ttf
1023751	WORD	wordpools/wasnorm_wordpool_less_exclusions.txt	LTP247	ltpFR	15	5	0	SUMMIT	1405	n/a	1	n/a	0	0	0	1	0.412841796875	0.57763671875	upper	../fonts/zerothre.ttf
1027811	WORD	wordpools/wasnorm_wordpool_less_exclusions.txt	LTP247	ltpFR	15	5	0	SHERIFF	1284	n/a	1	n/a	0	0	0	1	0.412841796875	0.57763671875	upper	../fonts/zerothre.ttf
1031872	WORD	wordpools/wasnorm_wordpool_less_exclusions.txt	LTP247	ltpFR	15	5	0	SHORTS	1293	n/a	0	n/a	0	0	0	1	0.412841796875	0.57763671875	upper	../fonts/zerothre.ttf
1035816	WORD	wordpools/wasnorm_wordpool_less_exclusions.txt	LTP247	ltpFR	15	5	0	GANG	619	n/a	1	n/a	0	0	0	1	0.412841796875	0.57763671875	upper	../fonts/zerothre.ttf
1038828	START	n/a	LTP247	ltpFR	15	n/a	n/a	n/a	n/a	n/a	n/a	n/a	n/a	n/a	n/a	n/a	n/a	n/a	n/a	n/a
1040010	PROB	n/a	LTP247	ltpFR	15	n/a	n/a	n/a	n/a	n/a	n/a	15	5	6	4	n/a	n/a	n/a	n/a	n/a
1042772	PROB	n/a	LTP247	ltpFR	15	n/a	n/a	n/a	n/a	n/a	n/a	20	9	4	7	n/a	n/a	n/a	n/a	n/a
1044220	PROB	n/a	LTP247	ltpFR	15	n/a	n/a	n/a	n/a	n/a	n/a	13	2	7	4	n/a	n/a	n/a	n/a	n/a
1045867	PROB	n/a	LTP247	ltpFR	15	n/a	n/a	n/a	n/a	n/a	n/a	10	1	7	2	n/a	n/a	n/a	n/a	n/a
1047499	PROB	n/a	LTP247	ltpFR	15	n/a	n/a	n/a	n/a	n/a	n/a	12	4	3	5	n/a	n/a	n/a	n/a	n/a
1048846	PROB	n/a	LTP247	ltpFR	15	n/a	n/a	n/a	n/a	n/a	n/a	13	4	1	5	n/a	n/a	n/a	n/a	n/a
1050278	PROB	n/a	LTP247	ltpFR	15	n/a	n/a	n/a	n/a	n/a	n/a	11	7	3	1	n/a	n/a	n/a	n/a	n/a
1052258	PROB	n/a	LTP247	ltpFR	15	n/a	n/a	n/a	n/a	n/a	n/a	14	7	1	6	n/a	n/a	n/a	n/a	n/a
1054037	STOP	n/a	LTP247	ltpFR	15	n/a	n/a	n/a	n/a	n/a	n/a	n/a	n/a	n/a	n/a	n/a	n/a	n/a	n/a	n/a
1056768	REC_START	n/a	LTP247	ltpFR	15	5	n/a	n/a	n/a	n/a	n/a	n/a	0	0	0	n/a	n/a	n/a	n/a	n/a
1057893	REC_WORD	wordpools/wasnorm_wordpool_less_exclusions.txt	LTP247	ltpFR	15	5	0	SHORTS	1293	n/a	0	n/a	0	0	0	n/a	n/a	n/a	n/a	n/a
1058718	REC_WORD	wordpools/wasnorm_wordpool_less_exclusions.txt	LTP247	ltpFR	15	5	1	PANTS	1010	n/a	0	n/a	0	0	0	n/a	n/a	n/a	n/a	n/a
1059352	REC_WORD	wordpools/wasnorm_wordpool_less_exclusions.txt	LTP247	ltpFR	15	5	0	SHERIFF	1284	n/a	1	n/a	0	0	0	n/a	n/a	n/a	n/a	n/a
1060412	REC_WORD	wordpools/wasnorm_wordpool_less_exclusions.txt	LTP247	ltpFR	15	5	1	AGENT	10	n/a	1	n/a	0	0	0	n/a	n/a	n/a	n/a	n/a
1061572	REC_WORD	wordpools/wasnorm_wordpool_less_exclusions.txt	LTP247	ltpFR	15	5	0	OYSTER	995	n/a	0	n/a	0	0	0	n/a	n/a	n/a	n/a	n/a
1062464	REC_WORD	wordpools/wasnorm_wordpool_less_exclusions.txt	LTP247	ltpFR	15	5	0	SHELL	1281	n/a	0	n/a	0	0	0	n/a	n/a	n/a	n/a	n/a
1063647	REC_WORD	wordpools/wasnorm_wordpool_less_exclusions.txt	LTP247	ltpFR	15	5	1	ABDOMEN	1	n/a	0	n/a	0	0	0	n/a	n/a	n/a	n/a	n/a
1068523	REC_WORD	wordpools/wasnorm_wordpool_less_exclusions.txt	LTP247	ltpFR	15	5	0	SUMMIT	1405	n/a	1	n/a	0	0	0	n/a	n/a	n/a	n/a	n/a
1074057	REC_WORD	wordpools/wasnorm_wordpool_less_exclusions.txt	LTP247	ltpFR	15	5	1	CARROT	249	n/a	0	n/a	0	0	0	n/a	n/a	n/a	n/a	n/a
1074755	REC_WORD	wordpools/wasnorm_wordpool_less_exclusions.txt	LTP247	ltpFR	15	5	1	STEW	1380	n/a	0	n/a	0	0	0	n/a	n/a	n/a	n/a	n/a
1142107	START	n/a	LTP247	ltpFR	15	n/a	n/a	n/a	n/a	n/a	n/a	n/a	n/a	n/a	n/a	n/a	n/a	n/a	n/a	n/a
1143622	PROB	n/a	LTP247	ltpFR	15	n/a	n/a	n/a	n/a	n/a	n/a	21	8	5	8	n/a	n/a	n/a	n/a	n/a
1144969	PROB	n/a	LTP247	ltpFR	15	n/a	n/a	n/a	n/a	n/a	n/a	11	3	4	4	n/a	n/a	n/a	n/a	n/a
1146184	PROB	n/a	LTP247	ltpFR	15	n/a	n/a	n/a	n/a	n/a	n/a	14	7	5	2	n/a	n/a	n/a	n/a	n/a
1147715	PROB	n/a	LTP247	ltpFR	15	n/a	n/a	n/a	n/a	n/a	n/a	20	9	6	5	n/a	n/a	n/a	n/a	n/a
1149413	PROB	n/a	LTP247	ltpFR	15	n/a	n/a	n/a	n/a	n/a	n/a	12	1	4	7	n/a	n/a	n/a	n/a	n/a
1150811	PROB	n/a	LTP247	ltpFR	15	n/a	n/a	n/a	n/a	n/a	n/a	14	1	4	9	n/a	n/a	n/a	n/a	n/a
1152675	PROB	n/a	LTP247	ltpFR	15	n/a	n/a	n/a	n/a	n/a	n/a	17	9	2	6	n/a	n/a	n/a	n/a	n/a
1154156	PROB	n/a	LTP247	ltpFR	15	n/a	n/a	n/a	n/a	n/a	n/a	19	9	4	6	n/a	n/a	n/a	n/a	n/a
1155787	PROB	n/a	LTP247	ltpFR	15	n/a	n/a	n/a	n/a	n/a	n/a	8	2	1	5	n/a	n/a	n/a	n/a	n/a
1157005	STOP	n/a	LTP247	ltpFR	15	n/a	n/a	n/a	n/a	n/a	n/a	n/a	n/a	n/a	n/a	n/a	n/a	n/a	n/a	n/a
1159082	WORD	wordpools/wasnorm_wordpool_less_exclusions.txt	LTP247	ltpFR	15	6	0	BUBBLE	183	n/a	0	n/a	0	0	0	1	0.412841796875	0.57763671875	upper	../fonts/zerothre.ttf
1162094	START	n/a	LTP247	ltpFR	15	n/a	n/a	n/a	n/a	n/a	n/a	n/a	n/a	n/a	n/a	n/a	n/a	n/a	n/a	n/a
1163192	PROB	n/a	LTP247	ltpFR	15	n/a	n/a	n/a	n/a	n/a	n/a	10	4	4	2	n/a	n/a	n/a	n/a	n/a
1164490	PROB	n/a	LTP247	ltpFR	15	n/a	n/a	n/a	n/a	n/a	n/a	15	3	5	7	n/a	n/a	n/a	n/a	n/a
1165971	PROB	n/a	LTP247	ltpFR	15	n/a	n/a	n/a	n/a	n/a	n/a	16	6	6	4	n/a	n/a	n/a	n/a	n/a
1167403	PROB	n/a	LTP247	ltpFR	15	n/a	n/a	n/a	n/a	n/a	n/a	9	4	2	3	n/a	n/a	n/a	n/a	n/a
1169267	PROB	n/a	LTP247	ltpFR	15	n/a	n/a	n/a	n/a	n/a	n/a	15	5	7	3	n/a	n/a	n/a	n/a	n/a
1170698	PROB	n/a	LTP247	ltpFR	15	n/a	n/a	n/a	n/a	n/a	n/a	7	2	3	2	n/a	n/a	n/a	n/a	n/a
1172496	PROB	n/a	LTP247	ltpFR	15	n/a	n/a	n/a	n/a	n/a	n/a	16	6	1	9	n/a	n/a	n/a	n/a	n/a
1174991	PROB	n/a	LTP247	ltpFR	15	n/a	n/a	n/a	n/a	n/a	n/a	21	9	5	7	n/a	n/a	n/a	n/a	n/a
1176439	PROB	n/a	LTP247	ltpFR	15	n/a	n/a	n/a	n/a	n/a	n/a	20	9	2	9	n/a	n/a	n/a	n/a	n/a
1177901	STOP	n/a	LTP247	ltpFR	15	n/a	n/a	n/a	n/a	n/a	n/a	n/a	n/a	n/a	n/a	n/a	n/a	n/a	n/a	n/a
1179168	WORD	wordpools/wasnorm_wordpool_less_exclusions.txt	LTP247	ltpFR	15	6	0	POLYESTER	1100	n/a	0	n/a	0	0	0	1	0.412841796875	0.57763671875	upper	../fonts/zerothre.ttf
1182181	START	n/a	LTP247	ltpFR	15	n/a	n/a	n/a	n/a	n/a	n/a	n/a	n/a	n/a	n/a	n/a	n/a	n/a	n/a	n/a
1183179	PROB	n/a	LTP247	ltpFR	15	n/a	n/a	n/a	n/a	n/a	n/a	13	2	2	9	n/a	n/a	n/a	n/a	n/a
1184810	PROB	n/a	LTP247	ltpFR	15	n/a	n/a	n/a	n/a	n/a	n/a	18	5	4	9	n/a	n/a	n/a	n/a	n/a
1186441	PROB	n/a	LTP247	ltpFR	15	n/a	n/a	n/a	n/a	n/a	n/a	17	4	7	6	n/a	n/a	n/a	n/a	n/a
1188355	PROB	n/a	LTP247	ltpFR	15	n/a	n/a	n/a	n/a	n/a	n/a	10	7	2	1	n/a	n/a	n/a	n/a	n/a
1190235	PROB	n/a	LTP247	ltpFR	15	n/a	n/a	n/a	n/a	n/a	n/a	21	7	9	5	n/a	n/a	n/a	n/a	n/a
1191816	PROB	n/a	LTP247	ltpFR	15	n/a	n/a	n/a	n/a	n/a	n/a	10	3	1	6	n/a	n/a	n/a	n/a	n/a
1193231	PROB	n/a	LTP247	ltpFR	15	n/a	n/a	n/a	n/a	n/a	n/a	11	1	2	8	n/a	n/a	n/a	n/a	n/a
1194579	PROB	n/a	LTP247	ltpFR	15	n/a	n/a	n/a	n/a	n/a	n/a	5	2	1	2	n/a	n/a	n/a	n/a	n/a
1198173	STOP	n/a	LTP247	ltpFR	15	n/a	n/a	n/a	n/a	n/a	n/a	n/a	n/a	n/a	n/a	n/a	n/a	n/a	n/a	n/a
1199355	WORD	wordpools/wasnorm_wordpool_less_exclusions.txt	LTP247	ltpFR	15	6	1	PERSONNEL	1053	n/a	1	n/a	0	0	0	0	0.5869140625	0.422607421875	lower	../fonts/amplitud.ttf
1202367	START	n/a	LTP247	ltpFR	15	n/a	n/a	n/a	n/a	n/a	n/a	n/a	n/a	n/a	n/a	n/a	n/a	n/a	n/a	n/a
1203232	PROB	n/a	LTP247	ltpFR	15	n/a	n/a	n/a	n/a	n/a	n/a	15	8	1	6	n/a	n/a	n/a	n/a	n/a
1205013	PROB	n/a	LTP247	ltpFR	15	n/a	n/a	n/a	n/a	n/a	n/a	17	5	9	3	n/a	n/a	n/a	n/a	n/a
1207043	PROB	n/a	LTP247	ltpFR	15	n/a	n/a	n/a	n/a	n/a	n/a	15	7	2	6	n/a	n/a	n/a	n/a	n/a
1208558	PROB	n/a	LTP247	ltpFR	15	n/a	n/a	n/a	n/a	n/a	n/a	18	8	7	3	n/a	n/a	n/a	n/a	n/a
1210039	PROB	n/a	LTP247	ltpFR	15	n/a	n/a	n/a	n/a	n/a	n/a	7	5	1	1	n/a	n/a	n/a	n/a	n/a
1211986	PROB	n/a	LTP247	ltpFR	15	n/a	n/a	n/a	n/a	n/a	n/a	7	2	2	3	n/a	n/a	n/a	n/a	n/a
1213535	PROB	n/a	LTP247	ltpFR	15	n/a	n/a	n/a	n/a	n/a	n/a	19	5	8	6	n/a	n/a	n/a	n/a	n/a
1214965	PROB	n/a	LTP247	ltpFR	15	n/a	n/a	n/a	n/a	n/a	n/a	14	1	7	6	n/a	n/a	n/a	n/a	n/a
1216479	PROB	n/a	LTP247	ltpFR	15	n/a	n/a	n/a	n/a	n/a	n/a	19	9	6	4	n/a	n/a	n/a	n/a	n/a
1217869	STOP	n/a	LTP247	ltpFR	15	n/a	n/a	n/a	n/a	n/a	n/a	n/a	n/a	n/a	n/a	n/a	n/a	n/a	n/a	n/a
1219292	WORD	wordpools/wasnorm_wordpool_less_exclusions.txt	LTP247	ltpFR	15	6	1	PIGEON	1065	n/a	1	n/a	0	0	0	0	0.5869140625	0.422607421875	lower	../fonts/amplitud.ttf
1222304	START	n/a	LTP247	ltpFR	15	n/a	n/a	n/a	n/a	n/a	n/a	n/a	n/a	n/a	n/a	n/a	n/a	n/a	n/a	n/a
1223336	PROB	n/a	LTP247	ltpFR	15	n/a	n/a	n/a	n/a	n/a	n/a	15	4	2	9	n/a	n/a	n/a	n/a	n/a
1224767	PROB	n/a	LTP247	ltpFR	15	n/a	n/a	n/a	n/a	n/a	n/a	9	1	6	2	n/a	n/a	n/a	n/a	n/a
1226564	PROB	n/a	LTP247	ltpFR	15	n/a	n/a	n/a	n/a	n/a	n/a	16	8	6	2	n/a	n/a	n/a	n/a	n/a
1228162	PROB	n/a	LTP247	ltpFR	15	n/a	n/a	n/a	n/a	n/a	n/a	12	2	4	6	n/a	n/a	n/a	n/a	n/a
1230042	PROB	n/a	LTP247	ltpFR	15	n/a	n/a	n/a	n/a	n/a	n/a	15	9	3	3	n/a	n/a	n/a	n/a	n/a
1231673	PROB	n/a	LTP247	ltpFR	15	n/a	n/a	n/a	n/a	n/a	n/a	23	7	8	8	n/a	n/a	n/a	n/a	n/a
1233371	PROB	n/a	LTP247	ltpFR	15	n/a	n/a	n/a	n/a	n/a	n/a	24	9	9	6	n/a	n/a	n/a	n/a	n/a
1235301	PROB	n/a	LTP247	ltpFR	15	n/a	n/a	n/a	n/a	n/a	n/a	22	4	9	9	n/a	n/a	n/a	n/a	n/a
1236885	STOP	n/a	LTP247	ltpFR	15	n/a	n/a	n/a	n/a	n/a	n/a	n/a	n/a	n/a	n/a	n/a	n/a	n/a	n/a	n/a
1239312	WORD	wordpools/wasnorm_wordpool_less_exclusions.txt	LTP247	ltpFR	15	6	1	DONKEY	484	n/a	1	n/a	0	0	0	0	0.5869140625	0.422607421875	lower	../fonts/amplitud.ttf
1242324	START	n/a	LTP247	ltpFR	15	n/a	n/a	n/a	n/a	n/a	n/a	n/a	n/a	n/a	n/a	n/a	n/a	n/a	n/a	n/a
1243507	PROB	n/a	LTP247	ltpFR	15	n/a	n/a	n/a	n/a	n/a	n/a	19	4	8	7	n/a	n/a	n/a	n/a	n/a
1245186	PROB	n/a	LTP247	ltpFR	15	n/a	n/a	n/a	n/a	n/a	n/a	19	6	8	5	n/a	n/a	n/a	n/a	n/a
1247134	PROB	n/a	LTP247	ltpFR	15	n/a	n/a	n/a	n/a	n/a	n/a	20	3	8	9	n/a	n/a	n/a	n/a	n/a
1248898	PROB	n/a	LTP247	ltpFR	15	n/a	n/a	n/a	n/a	n/a	n/a	14	6	7	1	n/a	n/a	n/a	n/a	n/a
1250562	PROB	n/a	LTP247	ltpFR	15	n/a	n/a	n/a	n/a	n/a	n/a	21	7	7	7	n/a	n/a	n/a	n/a	n/a
1252409	PROB	n/a	LTP247	ltpFR	15	n/a	n/a	n/a	n/a	n/a	n/a	9	3	2	4	n/a	n/a	n/a	n/a	n/a
1253707	PROB	n/a	LTP247	ltpFR	15	n/a	n/a	n/a	n/a	n/a	n/a	22	5	8	9	n/a	n/a	n/a	n/a	n/a
1255022	PROB	n/a	LTP247	ltpFR	15	n/a	n/a	n/a	n/a	n/a	n/a	19	6	8	5	n/a	n/a	n/a	n/a	n/a
1256877	STOP	n/a	LTP247	ltpFR	15	n/a	n/a	n/a	n/a	n/a	n/a	n/a	n/a	n/a	n/a	n/a	n/a	n/a	n/a	n/a
1259215	WORD	wordpools/wasnorm_wordpool_less_exclusions.txt	LTP247	ltpFR	15	6	1	TOY	1492	n/a	0	n/a	0	0	0	0	0.5869140625	0.422607421875	lower	../fonts/amplitud.ttf
1262228	START	n/a	LTP247	ltpFR	15	n/a	n/a	n/a	n/a	n/a	n/a	n/a	n/a	n/a	n/a	n/a	n/a	n/a	n/a	n/a
1263426	PROB	n/a	LTP247	ltpFR	15	n/a	n/a	n/a	n/a	n/a	n/a	9	1	7	1	n/a	n/a	n/a	n/a	n/a
1265423	PROB	n/a	LTP247	ltpFR	15	n/a	n/a	n/a	n/a	n/a	n/a	20	6	8	6	n/a	n/a	n/a	n/a	n/a
1266921	PROB	n/a	LTP247	ltpFR	15	n/a	n/a	n/a	n/a	n/a	n/a	14	1	9	4	n/a	n/a	n/a	n/a	n/a
1268418	PROB	n/a	LTP247	ltpFR	15	n/a	n/a	n/a	n/a	n/a	n/a	15	3	9	3	n/a	n/a	n/a	n/a	n/a
1271198	PROB	n/a	LTP247	ltpFR	15	n/a	n/a	n/a	n/a	n/a	n/a	10	4	2	4	n/a	n/a	n/a	n/a	n/a
1272679	PROB	n/a	LTP247	ltpFR	15	n/a	n/a	n/a	n/a	n/a	n/a	14	7	6	1	n/a	n/a	n/a	n/a	n/a
1274110	PROB	n/a	LTP247	ltpFR	15	n/a	n/a	n/a	n/a	n/a	n/a	22	8	5	9	n/a	n/a	n/a	n/a	n/a
1275907	PROB	n/a	LTP247	ltpFR	15	n/a	n/a	n/a	n/a	n/a	n/a	8	1	4	3	n/a	n/a	n/a	n/a	n/a
1277565	STOP	n/a	LTP247	ltpFR	15	n/a	n/a	n/a	n/a	n/a	n/a	n/a	n/a	n/a	n/a	n/a	n/a	n/a	n/a	n/a
1279169	WORD	wordpools/wasnorm_wordpool_less_exclusions.txt	LTP247	ltpFR	15	6	1	BUGGY	188	n/a	0	n/a	0	0	0	0	0.5869140625	0.422607421875	lower	../fonts/amplitud.ttf
1282182	START	n/a	LTP247	ltpFR	15	n/a	n/a	n/a	n/a	n/a	n/a	n/a	n/a	n/a	n/a	n/a	n/a	n/a	n/a	n/a
1283246	PROB	n/a	LTP247	ltpFR	15	n/a	n/a	n/a	n/a	n/a	n/a	17	4	6	7	n/a	n/a	n/a	n/a	n/a
1285276	PROB	n/a	LTP247	ltpFR	15	n/a	n/a	n/a	n/a	n/a	n/a	19	4	7	8	n/a	n/a	n/a	n/a	n/a
1287057	PROB	n/a	LTP247	ltpFR	15	n/a	n/a	n/a	n/a	n/a	n/a	14	5	5	4	n/a	n/a	n/a	n/a	n/a
1288588	PROB	n/a	LTP247	ltpFR	15	n/a	n/a	n/a	n/a	n/a	n/a	18	7	6	5	n/a	n/a	n/a	n/a	n/a
1290585	PROB	n/a	LTP247	ltpFR	15	n/a	n/a	n/a	n/a	n/a	n/a	8	6	1	1	n/a	n/a	n/a	n/a	n/a
1292166	PROB	n/a	LTP247	ltpFR	15	n/a	n/a	n/a	n/a	n/a	n/a	11	2	2	7	n/a	n/a	n/a	n/a	n/a
1293464	PROB	n/a	LTP247	ltpFR	15	n/a	n/a	n/a	n/a	n/a	n/a	17	8	3	6	n/a	n/a	n/a	n/a	n/a
1295162	PROB	n/a	LTP247	ltpFR	15	n/a	n/a	n/a	n/a	n/a	n/a	12	6	5	1	n/a	n/a	n/a	n/a	n/a
1296773	STOP	n/a	LTP247	ltpFR	15	n/a	n/a	n/a	n/a	n/a	n/a	n/a	n/a	n/a	n/a	n/a	n/a	n/a	n/a	n/a
1299339	WORD	wordpools/wasnorm_wordpool_less_exclusions.txt	LTP247	ltpFR	15	6	1	GARAGE	621	n/a	0	n/a	0	0	0	0	0.5869140625	0.422607421875	lower	../fonts/amplitud.ttf
1302351	START	n/a	LTP247	ltpFR	15	n/a	n/a	n/a	n/a	n/a	n/a	n/a	n/a	n/a	n/a	n/a	n/a	n/a	n/a	n/a
1303216	PROB	n/a	LTP247	ltpFR	15	n/a	n/a	n/a	n/a	n/a	n/a	13	3	8	2	n/a	n/a	n/a	n/a	n/a
1305197	PROB	n/a	LTP247	ltpFR	15	n/a	n/a	n/a	n/a	n/a	n/a	14	6	4	4	n/a	n/a	n/a	n/a	n/a
1307310	PROB	n/a	LTP247	ltpFR	15	n/a	n/a	n/a	n/a	n/a	n/a	12	6	2	4	n/a	n/a	n/a	n/a	n/a
1309224	PROB	n/a	LTP247	ltpFR	15	n/a	n/a	n/a	n/a	n/a	n/a	21	9	7	5	n/a	n/a	n/a	n/a	n/a
1310705	PROB	n/a	LTP247	ltpFR	15	n/a	n/a	n/a	n/a	n/a	n/a	14	7	4	3	n/a	n/a	n/a	n/a	n/a
1312586	PROB	n/a	LTP247	ltpFR	15	n/a	n/a	n/a	n/a	n/a	n/a	12	7	2	3	n/a	n/a	n/a	n/a	n/a
1314300	PROB	n/a	LTP247	ltpFR	15	n/a	n/a	n/a	n/a	n/a	n/a	18	3	8	7	n/a	n/a	n/a	n/a	n/a
1315914	PROB	n/a	LTP247	ltpFR	15	n/a	n/a	n/a	n/a	n/a	n/a	18	2	8	8	n/a	n/a	n/a	n/a	n/a
1317453	STOP	n/a	LTP247	ltpFR	15	n/a	n/a	n/a	n/a	n/a	n/a	n/a	n/a	n/a	n/a	n/a	n/a	n/a	n/a	n/a
1319342	WORD	wordpools/wasnorm_wordpool_less_exclusions.txt	LTP247	ltpFR	15	6	0	BUCKLE	185	n/a	n/a	n/a	0	0	0	1	0.412841796875	0.57763671875	upper	../fonts/zerothre.ttf
1322371	SLOW_MSG	n/a	LTP247	ltpFR	15	6	n/a	n/a	n/a	n/a	n/a	n/a	0	0	0	n/a	n/a	n/a	n/a	n/a
1323903	START	n/a	LTP247	ltpFR	15	n/a	n/a	n/a	n/a	n/a	n/a	n/a	n/a	n/a	n/a	n/a	n/a	n/a	n/a	n/a
1324718	PROB	n/a	LTP247	ltpFR	15	n/a	n/a	n/a	n/a	n/a	n/a	12	6	3	3	n/a	n/a	n/a	n/a	n/a
1327147	PROB	n/a	LTP247	ltpFR	15	n/a	n/a	n/a	n/a	n/a	n/a	20	7	7	6	n/a	n/a	n/a	n/a	n/a
1329327	PROB	n/a	LTP247	ltpFR	15	n/a	n/a	n/a	n/a	n/a	n/a	12	9	2	1	n/a	n/a	n/a	n/a	n/a
1330709	PROB	n/a	LTP247	ltpFR	15	n/a	n/a	n/a	n/a	n/a	n/a	21	8	8	5	n/a	n/a	n/a	n/a	n/a
1332540	PROB	n/a	LTP247	ltpFR	15	n/a	n/a	n/a	n/a	n/a	n/a	15	6	8	1	n/a	n/a	n/a	n/a	n/a
1334253	PROB	n/a	LTP247	ltpFR	15	n/a	n/a	n/a	n/a	n/a	n/a	13	1	3	9	n/a	n/a	n/a	n/a	n/a
1336816	PROB	n/a	LTP247	ltpFR	15	n/a	n/a	n/a	n/a	n/a	n/a	13	8	3	2	n/a	n/a	n/a	n/a	n/a
1338917	STOP	n/a	LTP247	ltpFR	15	n/a	n/a	n/a	n/a	n/a	n/a	n/a	n/a	n/a	n/a	n/a	n/a	n/a	n/a	n/a
1340760	WORD	wordpools/wasnorm_wordpool_less_exclusions.txt	LTP247	ltpFR	15	6	0	MOB	904	n/a	1	n/a	0	0	0	1	0.412841796875	0.57763671875	upper	../fonts/zerothre.ttf
1343773	START	n/a	LTP247	ltpFR	15	n/a	n/a	n/a	n/a	n/a	n/a	n/a	n/a	n/a	n/a	n/a	n/a	n/a	n/a	n/a
1344688	PROB	n/a	LTP247	ltpFR	15	n/a	n/a	n/a	n/a	n/a	n/a	19	7	4	8	n/a	n/a	n/a	n/a	n/a
1346619	PROB	n/a	LTP247	ltpFR	15	n/a	n/a	n/a	n/a	n/a	n/a	10	5	2	3	n/a	n/a	n/a	n/a	n/a
1348249	PROB	n/a	LTP247	ltpFR	15	n/a	n/a	n/a	n/a	n/a	n/a	12	5	3	4	n/a	n/a	n/a	n/a	n/a
1350080	PROB	n/a	LTP247	ltpFR	15	n/a	n/a	n/a	n/a	n/a	n/a	14	4	4	6	n/a	n/a	n/a	n/a	n/a
1352077	PROB	n/a	LTP247	ltpFR	15	n/a	n/a	n/a	n/a	n/a	n/a	19	5	6	8	n/a	n/a	n/a	n/a	n/a
1353708	PROB	n/a	LTP247	ltpFR	15	n/a	n/a	n/a	n/a	n/a	n/a	18	4	5	9	n/a	n/a	n/a	n/a	n/a
1355771	PROB	n/a	LTP247	ltpFR	15	n/a	n/a	n/a	n/a	n/a	n/a	11	6	2	3	n/a	n/a	n/a	n/a	n/a
1359773	STOP	n/a	LTP247	ltpFR	15	n/a	n/a	n/a	n/a	n/a	n/a	n/a	n/a	n/a	n/a	n/a	n/a	n/a	n/a	n/a
1360897	WORD	wordpools/wasnorm_wordpool_less_exclusions.txt	LTP247	ltpFR	15	6	0	SERGEANT	1269	n/a	1	n/a	0	0	0	1	0.412841796875	0.57763671875	upper	../fonts/zerothre.ttf
1363910	START	n/a	LTP247	ltpFR	15	n/a	n/a	n/a	n/a	n/a	n/a	n/a	n/a	n/a	n/a	n/a	n/a	n/a	n/a	n/a
1364741	PROB	n/a	LTP247	ltpFR	15	n/a	n/a	n/a	n/a	n/a	n/a	10	1	5	4	n/a	n/a	n/a	n/a	n/a
1366755	PROB	n/a	LTP247	ltpFR	15	n/a	n/a	n/a	n/a	n/a	n/a	25	9	8	8	n/a	n/a	n/a	n/a	n/a
1370133	PROB	n/a	LTP247	ltpFR	15	n/a	n/a	n/a	n/a	n/a	n/a	19	5	6	8	n/a	n/a	n/a	n/a	n/a
1371664	PROB	n/a	LTP247	ltpFR	15	n/a	n/a	n/a	n/a	n/a	n/a	13	6	1	6	n/a	n/a	n/a	n/a	n/a
1373546	PROB	n/a	LTP247	ltpFR	15	n/a	n/a	n/a	n/a	n/a	n/a	16	5	8	3	n/a	n/a	n/a	n/a	n/a
1375342	PROB	n/a	LTP247	ltpFR	15	n/a	n/a	n/a	n/a	n/a	n/a	18	2	8	8	n/a	n/a	n/a	n/a	n/a
1377073	PROB	n/a	LTP247	ltpFR	15	n/a	n/a	n/a	n/a	n/a	n/a	15	8	2	5	n/a	n/a	n/a	n/a	n/a
1378494	STOP	n/a	LTP247	ltpFR	15	n/a	n/a	n/a	n/a	n/a	n/a	n/a	n/a	n/a	n/a	n/a	n/a	n/a	n/a	n/a
1380917	WORD	wordpools/wasnorm_wordpool_less_exclusions.txt	LTP247	ltpFR	15	6	0	QUAIL	1147	n/a	0	n/a	0	0	0	1	0.412841796875	0.57763671875	upper	../fonts/zerothre.ttf
1383930	START	n/a	LTP247	ltpFR	15	n/a	n/a	n/a	n/a	n/a	n/a	n/a	n/a	n/a	n/a	n/a	n/a	n/a	n/a	n/a
1385028	PROB	n/a	LTP247	ltpFR	15	n/a	n/a	n/a	n/a	n/a	n/a	11	5	5	1	n/a	n/a	n/a	n/a	n/a
1386226	PROB	n/a	LTP247	ltpFR	15	n/a	n/a	n/a	n/a	n/a	n/a	14	1	4	9	n/a	n/a	n/a	n/a	n/a
1387857	PROB	n/a	LTP247	ltpFR	15	n/a	n/a	n/a	n/a	n/a	n/a	12	3	5	4	n/a	n/a	n/a	n/a	n/a
1389737	PROB	n/a	LTP247	ltpFR	15	n/a	n/a	n/a	n/a	n/a	n/a	16	4	3	9	n/a	n/a	n/a	n/a	n/a
1391584	PROB	n/a	LTP247	ltpFR	15	n/a	n/a	n/a	n/a	n/a	n/a	15	6	1	8	n/a	n/a	n/a	n/a	n/a
1393265	PROB	n/a	LTP247	ltpFR	15	n/a	n/a	n/a	n/a	n/a	n/a	21	7	5	9	n/a	n/a	n/a	n/a	n/a
1395546	PROB	n/a	LTP247	ltpFR	15	n/a	n/a	n/a	n/a	n/a	n/a	19	6	6	7	n/a	n/a	n/a	n/a	n/a
1397592	PROB	n/a	LTP247	ltpFR	15	n/a	n/a	n/a	n/a	n/a	n/a	8	2	5	1	n/a	n/a	n/a	n/a	n/a
1398877	STOP	n/a	LTP247	ltpFR	15	n/a	n/a	n/a	n/a	n/a	n/a	n/a	n/a	n/a	n/a	n/a	n/a	n/a	n/a	n/a
1400871	WORD	wordpools/wasnorm_wordpool_less_exclusions.txt	LTP247	ltpFR	15	6	0	DIAMOND	458	n/a	0	n/a	0	0	0	1	0.412841796875	0.57763671875	upper	../fonts/zerothre.ttf
1403883	START	n/a	LTP247	ltpFR	15	n/a	n/a	n/a	n/a	n/a	n/a	n/a	n/a	n/a	n/a	n/a	n/a	n/a	n/a	n/a
1404731	PROB	n/a	LTP247	ltpFR	15	n/a	n/a	n/a	n/a	n/a	n/a	22	8	7	7	n/a	n/a	n/a	n/a	n/a
1406612	PROB	n/a	LTP247	ltpFR	15	n/a	n/a	n/a	n/a	n/a	n/a	14	6	4	4	n/a	n/a	n/a	n/a	n/a
1408226	PROB	n/a	LTP247	ltpFR	15	n/a	n/a	n/a	n/a	n/a	n/a	17	6	7	4	n/a	n/a	n/a	n/a	n/a
1410723	PROB	n/a	LTP247	ltpFR	15	n/a	n/a	n/a	n/a	n/a	n/a	23	7	7	9	n/a	n/a	n/a	n/a	n/a
1414167	PROB	n/a	LTP247	ltpFR	15	n/a	n/a	n/a	n/a	n/a	n/a	17	9	3	5	n/a	n/a	n/a	n/a	n/a
1416015	PROB	n/a	LTP247	ltpFR	15	n/a	n/a	n/a	n/a	n/a	n/a	9	3	3	3	n/a	n/a	n/a	n/a	n/a
1417396	PROB	n/a	LTP247	ltpFR	15	n/a	n/a	n/a	n/a	n/a	n/a	10	4	4	2	n/a	n/a	n/a	n/a	n/a
1419005	STOP	n/a	LTP247	ltpFR	15	n/a	n/a	n/a	n/a	n/a	n/a	n/a	n/a	n/a	n/a	n/a	n/a	n/a	n/a	n/a
1420758	WORD	wordpools/wasnorm_wordpool_less_exclusions.txt	LTP247	ltpFR	15	6	0	SAPPHIRE	1234	n/a	0	n/a	0	0	0	1	0.412841796875	0.57763671875	upper	../fonts/zerothre.ttf
1423770	START	n/a	LTP247	ltpFR	15	n/a	n/a	n/a	n/a	n/a	n/a	n/a	n/a	n/a	n/a	n/a	n/a	n/a	n/a	n/a
1424901	PROB	n/a	LTP247	ltpFR	15	n/a	n/a	n/a	n/a	n/a	n/a	14	1	4	9	n/a	n/a	n/a	n/a	n/a
1426782	PROB	n/a	LTP247	ltpFR	15	n/a	n/a	n/a	n/a	n/a	n/a	16	7	6	3	n/a	n/a	n/a	n/a	n/a
1428596	PROB	n/a	LTP247	ltpFR	15	n/a	n/a	n/a	n/a	n/a	n/a	10	2	2	6	n/a	n/a	n/a	n/a	n/a
1430027	PROB	n/a	LTP247	ltpFR	15	n/a	n/a	n/a	n/a	n/a	n/a	17	8	2	7	n/a	n/a	n/a	n/a	n/a
1431558	PROB	n/a	LTP247	ltpFR	15	n/a	n/a	n/a	n/a	n/a	n/a	12	6	4	2	n/a	n/a	n/a	n/a	n/a
1433172	PROB	n/a	LTP247	ltpFR	15	n/a	n/a	n/a	n/a	n/a	n/a	21	4	8	9	n/a	n/a	n/a	n/a	n/a
1434720	PROB	n/a	LTP247	ltpFR	15	n/a	n/a	n/a	n/a	n/a	n/a	15	4	8	3	n/a	n/a	n/a	n/a	n/a
1436551	PROB	n/a	LTP247	ltpFR	15	n/a	n/a	n/a	n/a	n/a	n/a	20	9	7	4	n/a	n/a	n/a	n/a	n/a
1438437	STOP	n/a	LTP247	ltpFR	15	n/a	n/a	n/a	n/a	n/a	n/a	n/a	n/a	n/a	n/a	n/a	n/a	n/a	n/a	n/a
1440661	WORD	wordpools/wasnorm_wordpool_less_exclusions.txt	LTP247	ltpFR	15	6	1	CARPET	247	n/a	0	n/a	0	0	0	0	0.5869140625	0.422607421875	lower	../fonts/amplitud.ttf
1443674	START	n/a	LTP247	ltpFR	15	n/a	n/a	n/a	n/a	n/a	n/a	n/a	n/a	n/a	n/a	n/a	n/a	n/a	n/a	n/a
1444655	PROB	n/a	LTP247	ltpFR	15	n/a	n/a	n/a	n/a	n/a	n/a	20	9	5	6	n/a	n/a	n/a	n/a	n/a
1446652	PROB	n/a	LTP247	ltpFR	15	n/a	n/a	n/a	n/a	n/a	n/a	10	1	2	7	n/a	n/a	n/a	n/a	n/a
1448316	PROB	n/a	LTP247	ltpFR	15	n/a	n/a	n/a	n/a	n/a	n/a	21	9	3	9	n/a	n/a	n/a	n/a	n/a
1449947	PROB	n/a	LTP247	ltpFR	15	n/a	n/a	n/a	n/a	n/a	n/a	21	8	6	7	n/a	n/a	n/a	n/a	n/a
1451513	PROB	n/a	LTP247	ltpFR	15	n/a	n/a	n/a	n/a	n/a	n/a	12	4	6	2	n/a	n/a	n/a	n/a	n/a
1452843	PROB	n/a	LTP247	ltpFR	15	n/a	n/a	n/a	n/a	n/a	n/a	15	8	2	5	n/a	n/a	n/a	n/a	n/a
1454508	PROB	n/a	LTP247	ltpFR	15	n/a	n/a	n/a	n/a	n/a	n/a	7	1	4	2	n/a	n/a	n/a	n/a	n/a
1456005	PROB	n/a	LTP247	ltpFR	15	n/a	n/a	n/a	n/a	n/a	n/a	10	2	5	3	n/a	n/a	n/a	n/a	n/a
1457420	PROB	n/a	LTP247	ltpFR	15	n/a	n/a	n/a	n/a	n/a	n/a	9	1	1	7	n/a	n/a	n/a	n/a	n/a
1458605	STOP	n/a	LTP247	ltpFR	15	n/a	n/a	n/a	n/a	n/a	n/a	n/a	n/a	n/a	n/a	n/a	n/a	n/a	n/a	n/a
1460848	WORD	wordpools/wasnorm_wordpool_less_exclusions.txt	LTP247	ltpFR	15	6	1	BROOM	178	n/a	0	n/a	0	0	0	0	0.5869140625	0.422607421875	lower	../fonts/amplitud.ttf
1463860	START	n/a	LTP247	ltpFR	15	n/a	n/a	n/a	n/a	n/a	n/a	n/a	n/a	n/a	n/a	n/a	n/a	n/a	n/a	n/a
1464808	PROB	n/a	LTP247	ltpFR	15	n/a	n/a	n/a	n/a	n/a	n/a	15	1	9	5	n/a	n/a	n/a	n/a	n/a
1466489	PROB	n/a	LTP247	ltpFR	15	n/a	n/a	n/a	n/a	n/a	n/a	16	2	6	8	n/a	n/a	n/a	n/a	n/a
1468353	PROB	n/a	LTP247	ltpFR	15	n/a	n/a	n/a	n/a	n/a	n/a	22	9	6	7	n/a	n/a	n/a	n/a	n/a
1470982	PROB	n/a	LTP247	ltpFR	15	n/a	n/a	n/a	n/a	n/a	n/a	20	4	9	7	n/a	n/a	n/a	n/a	n/a
1472515	PROB	n/a	LTP247	ltpFR	15	n/a	n/a	n/a	n/a	n/a	n/a	11	1	3	7	n/a	n/a	n/a	n/a	n/a
1473828	PROB	n/a	LTP247	ltpFR	15	n/a	n/a	n/a	n/a	n/a	n/a	15	6	4	5	n/a	n/a	n/a	n/a	n/a
1475243	PROB	n/a	LTP247	ltpFR	15	n/a	n/a	n/a	n/a	n/a	n/a	12	6	5	1	n/a	n/a	n/a	n/a	n/a
1476791	PROB	n/a	LTP247	ltpFR	15	n/a	n/a	n/a	n/a	n/a	n/a	20	9	7	4	n/a	n/a	n/a	n/a	n/a
1479859	STOP	n/a	LTP247	ltpFR	15	n/a	n/a	n/a	n/a	n/a	n/a	n/a	n/a	n/a	n/a	n/a	n/a	n/a	n/a	n/a
1481700	REC_START	n/a	LTP247	ltpFR	15	6	n/a	n/a	n/a	n/a	n/a	n/a	0	0	0	n/a	n/a	n/a	n/a	n/a
1483434	REC_WORD	wordpools/wasnorm_wordpool_less_exclusions.txt	LTP247	ltpFR	15	6	1	CARPET	247	n/a	0	n/a	0	0	0	n/a	n/a	n/a	n/a	n/a
1484107	REC_WORD	wordpools/wasnorm_wordpool_less_exclusions.txt	LTP247	ltpFR	15	6	1	BROOM	178	n/a	0	n/a	0	0	0	n/a	n/a	n/a	n/a	n/a
1484751	REC_WORD	wordpools/wasnorm_wordpool_less_exclusions.txt	LTP247	ltpFR	15	6	0	SAPPHIRE	1234	n/a	0	n/a	0	0	0	n/a	n/a	n/a	n/a	n/a
1485850	REC_WORD	wordpools/wasnorm_wordpool_less_exclusions.txt	LTP247	ltpFR	15	6	0	DIAMOND	458	n/a	0	n/a	0	0	0	n/a	n/a	n/a	n/a	n/a
1487110	REC_WORD	wordpools/wasnorm_wordpool_less_exclusions.txt	LTP247	ltpFR	15	6	1	TOY	1492	n/a	0	n/a	0	0	0	n/a	n/a	n/a	n/a	n/a
1487873	REC_WORD	wordpools/wasnorm_wordpool_less_exclusions.txt	LTP247	ltpFR	15	6	1	BUGGY	188	n/a	0	n/a	0	0	0	n/a	n/a	n/a	n/a	n/a
1488582	REC_WORD	wordpools/wasnorm_wordpool_less_exclusions.txt	LTP247	ltpFR	15	6	1	GARAGE	621	n/a	0	n/a	0	0	0	n/a	n/a	n/a	n/a	n/a
1490032	REC_WORD	wordpools/wasnorm_wordpool_less_exclusions.txt	LTP247	ltpFR	15	6	0	QUAIL	1147	n/a	0	n/a	0	0	0	n/a	n/a	n/a	n/a	n/a
1490839	REC_WORD	wordpools/wasnorm_wordpool_less_exclusions.txt	LTP247	ltpFR	15	6	0	SERGEANT	1269	n/a	1	n/a	0	0	0	n/a	n/a	n/a	n/a	n/a
1491793	REC_WORD	wordpools/wasnorm_wordpool_less_exclusions.txt	LTP247	ltpFR	15	6	0	MOB	904	n/a	1	n/a	0	0	0	n/a	n/a	n/a	n/a	n/a
1566407	WORD	wordpools/wasnorm_wordpool_less_exclusions.txt	LTP247	ltpFR	15	7	1	SHRIMP	1297	n/a	1	n/a	0	0	0	0	0.5869140625	0.422607421875	lower	../fonts/amplitud.ttf
1570284	WORD	wordpools/wasnorm_wordpool_less_exclusions.txt	LTP247	ltpFR	15	7	1	DESSERT	453	n/a	0	n/a	0	0	0	0	0.5869140625	0.422607421875	lower	../fonts/amplitud.ttf
1574395	WORD	wordpools/wasnorm_wordpool_less_exclusions.txt	LTP247	ltpFR	15	7	1	WARRIOR	1589	n/a	1	n/a	0	0	0	0	0.5869140625	0.422607421875	lower	../fonts/amplitud.ttf
1578455	WORD	wordpools/wasnorm_wordpool_less_exclusions.txt	LTP247	ltpFR	15	7	1	FORT	595	n/a	0	n/a	0	0	0	0	0.5869140625	0.422607421875	lower	../fonts/amplitud.ttf
1582283	WORD	wordpools/wasnorm_wordpool_less_exclusions.txt	LTP247	ltpFR	15	7	1	POND	1101	n/a	0	n/a	0	0	0	0	0.5869140625	0.422607421875	lower	../fonts/amplitud.ttf
1586277	WORD	wordpools/wasnorm_wordpool_less_exclusions.txt	LTP247	ltpFR	15	7	1	CHEST	295	n/a	0	n/a	0	0	0	0	0.5869140625	0.422607421875	lower	../fonts/amplitud.ttf
1590105	WORD	wordpools/wasnorm_wordpool_less_exclusions.txt	LTP247	ltpFR	15	7	1	PIE	1062	n/a	0	n/a	0	0	0	0	0.5869140625	0.422607421875	lower	../fonts/amplitud.ttf
1594165	WORD	wordpools/wasnorm_wordpool_less_exclusions.txt	LTP247	ltpFR	15	7	1	CONTAINER	366	n/a	0	n/a	0	0	0	0	0.5869140625	0.422607421875	lower	../fonts/amplitud.ttf
1598242	WORD	wordpools/wasnorm_wordpool_less_exclusions.txt	LTP247	ltpFR	15	7	1	SUPERMARKET	1409	n/a	0	n/a	0	0	0	0	0.5869140625	0.422607421875	lower	../fonts/amplitud.ttf
1602103	WORD	wordpools/wasnorm_wordpool_less_exclusions.txt	LTP247	ltpFR	15	7	1	SUBMARINE	1398	n/a	0	n/a	0	0	0	0	0.5869140625	0.422607421875	lower	../fonts/amplitud.ttf
1605964	WORD	wordpools/wasnorm_wordpool_less_exclusions.txt	LTP247	ltpFR	15	7	1	REEF	1177	n/a	1	n/a	0	0	0	0	0.5869140625	0.422607421875	lower	../fonts/amplitud.ttf
1609825	WORD	wordpools/wasnorm_wordpool_less_exclusions.txt	LTP247	ltpFR	15	7	1	COD	340	n/a	1	n/a	0	0	0	0	0.5869140625	0.422607421875	lower	../fonts/amplitud.ttf
1613769	WORD	wordpools/wasnorm_wordpool_less_exclusions.txt	LTP247	ltpFR	15	7	1	THIGH	1457	n/a	0	n/a	0	0	0	0	0.5869140625	0.422607421875	lower	../fonts/amplitud.ttf
1617813	WORD	wordpools/wasnorm_wordpool_less_exclusions.txt	LTP247	ltpFR	15	7	1	CLOSET	326	n/a	0	n/a	0	0	0	0	0.5869140625	0.422607421875	lower	../fonts/amplitud.ttf
1621674	WORD	wordpools/wasnorm_wordpool_less_exclusions.txt	LTP247	ltpFR	15	7	1	SHEEP	1278	n/a	1	n/a	0	0	0	0	0.5869140625	0.422607421875	lower	../fonts/amplitud.ttf
1625801	WORD	wordpools/wasnorm_wordpool_less_exclusions.txt	LTP247	ltpFR	15	7	1	QUEEN	1149	n/a	1	n/a	0	0	0	0	0.5869140625	0.422607421875	lower	../fonts/amplitud.ttf
1631528	REC_START	n/a	LTP247	ltpFR	15	7	n/a	n/a	n/a	n/a	n/a	n/a	0	0	0	n/a	n/a	n/a	n/a	n/a
1633380	REC_WORD	wordpools/wasnorm_wordpool_less_exclusions.txt	LTP247	ltpFR	15	7	1	QUEEN	1149	n/a	1	n/a	0	0	0	n/a	n/a	n/a	n/a	n/a
1634150	REC_WORD	wordpools/wasnorm_wordpool_less_exclusions.txt	LTP247	ltpFR	15	7	1	SHEEP	1278	n/a	1	n/a	0	0	0	n/a	n/a	n/a	n/a	n/a
1635032	REC_WORD	wordpools/wasnorm_wordpool_less_exclusions.txt	LTP247	ltpFR	15	7	1	SUPERMARKET	1409	n/a	0	n/a	0	0	0	n/a	n/a	n/a	n/a	n/a
1635787	REC_WORD	wordpools/wasnorm_wordpool_less_exclusions.txt	LTP247	ltpFR	15	7	1	SUBMARINE	1398	n/a	0	n/a	0	0	0	n/a	n/a	n/a	n/a	n/a
1636654	REC_WORD	wordpools/wasnorm_wordpool_less_exclusions.txt	LTP247	ltpFR	15	7	1	REEF	1177	n/a	1	n/a	0	0	0	n/a	n/a	n/a	n/a	n/a
1637601	REC_WORD	wordpools/wasnorm_wordpool_less_exclusions.txt	LTP247	ltpFR	15	7	1	COD	340	n/a	1	n/a	0	0	0	n/a	n/a	n/a	n/a	n/a
1638660	REC_WORD	wordpools/wasnorm_wordpool_less_exclusions.txt	LTP247	ltpFR	15	7	1	SHRIMP	1297	n/a	1	n/a	0	0	0	n/a	n/a	n/a	n/a	n/a
1639545	REC_WORD	wordpools/wasnorm_wordpool_less_exclusions.txt	LTP247	ltpFR	15	7	1	DESSERT	453	n/a	0	n/a	0	0	0	n/a	n/a	n/a	n/a	n/a
1640356	REC_WORD	wordpools/wasnorm_wordpool_less_exclusions.txt	LTP247	ltpFR	15	7	1	WARRIOR	1589	n/a	1	n/a	0	0	0	n/a	n/a	n/a	n/a	n/a
1641347	REC_WORD	wordpools/wasnorm_wordpool_less_exclusions.txt	LTP247	ltpFR	15	7	1	FORT	595	n/a	0	n/a	0	0	0	n/a	n/a	n/a	n/a	n/a
1642505	REC_WORD	wordpools/wasnorm_wordpool_less_exclusions.txt	LTP247	ltpFR	15	7	1	POND	1101	n/a	0	n/a	0	0	0	n/a	n/a	n/a	n/a	n/a
1646097	REC_WORD	wordpools/wasnorm_wordpool_less_exclusions.txt	LTP247	ltpFR	15	7	1	CHEST	295	n/a	0	n/a	0	0	0	n/a	n/a	n/a	n/a	n/a
1652182	REC_WORD	wordpools/wasnorm_wordpool_less_exclusions.txt	LTP247	ltpFR	15	7	1	THIGH	1457	n/a	0	n/a	0	0	0	n/a	n/a	n/a	n/a	n/a
1712289	WORD	wordpools/wasnorm_wordpool_less_exclusions.txt	LTP247	ltpFR	15	8	1	ENEMY	534	n/a	1	n/a	0	0	0	0	0.5869140625	0.422607421875	lower	../fonts/amplitud.ttf
1716449	WORD	wordpools/wasnorm_wordpool_less_exclusions.txt	LTP247	ltpFR	15	8	1	BUTLER	204	n/a	1	n/a	0	0	0	0	0.5869140625	0.422607421875	lower	../fonts/amplitud.ttf
1720327	WORD	wordpools/wasnorm_wordpool_less_exclusions.txt	LTP247	ltpFR	15	8	1	MAID	856	n/a	1	n/a	0	0	0	0	0.5869140625	0.422607421875	lower	../fonts/amplitud.ttf
1724188	WORD	wordpools/wasnorm_wordpool_less_exclusions.txt	LTP247	ltpFR	15	8	1	BANKER	84	n/a	1	n/a	0	0	0	0	0.5869140625	0.422607421875	lower	../fonts/amplitud.ttf
1728132	WORD	wordpools/wasnorm_wordpool_less_exclusions.txt	LTP247	ltpFR	15	8	1	WAITER	1580	n/a	1	n/a	0	0	0	0	0.5869140625	0.422607421875	lower	../fonts/amplitud.ttf
1732143	WORD	wordpools/wasnorm_wordpool_less_exclusions.txt	LTP247	ltpFR	15	8	1	SNACK	1331	n/a	0	n/a	0	0	0	0	0.5869140625	0.422607421875	lower	../fonts/amplitud.ttf
1736220	WORD	wordpools/wasnorm_wordpool_less_exclusions.txt	LTP247	ltpFR	15	8	1	CASH	252	n/a	0	n/a	0	0	0	0	0.5869140625	0.422607421875	lower	../fonts/amplitud.ttf
1740297	WORD	wordpools/wasnorm_wordpool_less_exclusions.txt	LTP247	ltpFR	15	8	1	WHALE	1601	n/a	1	n/a	0	0	0	0	0.5869140625	0.422607421875	lower	../fonts/amplitud.ttf
1744341	WORD	wordpools/wasnorm_wordpool_less_exclusions.txt	LTP247	ltpFR	15	8	1	OATS	968	n/a	0	n/a	0	0	0	0	0.5869140625	0.422607421875	lower	../fonts/amplitud.ttf
1748235	WORD	wordpools/wasnorm_wordpool_less_exclusions.txt	LTP247	ltpFR	15	8	1	CAKE	219	n/a	0	n/a	0	0	0	0	0.5869140625	0.422607421875	lower	../fonts/amplitud.ttf
1752262	WORD	wordpools/wasnorm_wordpool_less_exclusions.txt	LTP247	ltpFR	15	8	1	CHIP	303	n/a	0	n/a	0	0	0	0	0.5869140625	0.422607421875	lower	../fonts/amplitud.ttf
1756406	WORD	wordpools/wasnorm_wordpool_less_exclusions.txt	LTP247	ltpFR	15	8	1	LOBSTER	837	n/a	1	n/a	0	0	0	0	0.5869140625	0.422607421875	lower	../fonts/amplitud.ttf
1760250	WORD	wordpools/wasnorm_wordpool_less_exclusions.txt	LTP247	ltpFR	15	8	1	VELVET	1555	n/a	0	n/a	0	0	0	0	0.5869140625	0.422607421875	lower	../fonts/amplitud.ttf
1764095	WORD	wordpools/wasnorm_wordpool_less_exclusions.txt	LTP247	ltpFR	15	8	1	CROSS	413	n/a	0	n/a	0	0	0	0	0.5869140625	0.422607421875	lower	../fonts/amplitud.ttf
1768289	WORD	wordpools/wasnorm_wordpool_less_exclusions.txt	LTP247	ltpFR	15	8	1	STATUE	1374	n/a	0	n/a	0	0	0	0	0.5869140625	0.422607421875	lower	../fonts/amplitud.ttf
1772333	WORD	wordpools/wasnorm_wordpool_less_exclusions.txt	LTP247	ltpFR	15	8	1	PAINTING	1005	n/a	0	n/a	0	0	0	0	0.5869140625	0.422607421875	lower	../fonts/amplitud.ttf
1775345	START	n/a	LTP247	ltpFR	15	n/a	n/a	n/a	n/a	n/a	n/a	n/a	n/a	n/a	n/a	n/a	n/a	n/a	n/a	n/a
1776460	PROB	n/a	LTP247	ltpFR	15	n/a	n/a	n/a	n/a	n/a	n/a	17	5	8	4	n/a	n/a	n/a	n/a	n/a
1778541	PROB	n/a	LTP247	ltpFR	15	n/a	n/a	n/a	n/a	n/a	n/a	19	9	3	7	n/a	n/a	n/a	n/a	n/a
1779921	PROB	n/a	LTP247	ltpFR	15	n/a	n/a	n/a	n/a	n/a	n/a	15	7	4	4	n/a	n/a	n/a	n/a	n/a
1781352	PROB	n/a	LTP247	ltpFR	15	n/a	n/a	n/a	n/a	n/a	n/a	14	3	8	3	n/a	n/a	n/a	n/a	n/a
1782733	STOP	n/a	LTP247	ltpFR	15	n/a	n/a	n/a	n/a	n/a	n/a	n/a	n/a	n/a	n/a	n/a	n/a	n/a	n/a	n/a
1785197	REC_START	n/a	LTP247	ltpFR	15	8	n/a	n/a	n/a	n/a	n/a	n/a	0	0	0	n/a	n/a	n/a	n/a	n/a
1786404	REC_WORD	wordpools/wasnorm_wordpool_less_exclusions.txt	LTP247	ltpFR	15	8	1	ENEMY	534	n/a	1	n/a	0	0	0	n/a	n/a	n/a	n/a	n/a
1787086	REC_WORD	wordpools/wasnorm_wordpool_less_exclusions.txt	LTP247	ltpFR	15	8	1	BUTLER	204	n/a	1	n/a	0	0	0	n/a	n/a	n/a	n/a	n/a
1787976	REC_WORD	wordpools/wasnorm_wordpool_less_exclusions.txt	LTP247	ltpFR	15	8	1	MAID	856	n/a	1	n/a	0	0	0	n/a	n/a	n/a	n/a	n/a
1790134	REC_WORD	wordpools/wasnorm_wordpool_less_exclusions.txt	LTP247	ltpFR	15	8	1	BANKER	84	n/a	1	n/a	0	0	0	n/a	n/a	n/a	n/a	n/a
1791431	REC_WORD	wordpools/wasnorm_wordpool_less_exclusions.txt	LTP247	ltpFR	15	8	1	WAITER	1580	n/a	1	n/a	0	0	0	n/a	n/a	n/a	n/a	n/a
1792545	REC_WORD	wordpools/wasnorm_wordpool_less_exclusions.txt	LTP247	ltpFR	15	8	1	WHALE	1601	n/a	1	n/a	0	0	0	n/a	n/a	n/a	n/a	n/a
1797628	REC_WORD	wordpools/wasnorm_wordpool_less_exclusions.txt	LTP247	ltpFR	15	8	1	LOBSTER	837	n/a	1	n/a	0	0	0	n/a	n/a	n/a	n/a	n/a
1813102	REC_WORD	wordpools/wasnorm_wordpool_less_exclusions.txt	LTP247	ltpFR	15	8	1	SNACK	1331	n/a	0	n/a	0	0	0	n/a	n/a	n/a	n/a	n/a
1814227	REC_WORD	wordpools/wasnorm_wordpool_less_exclusions.txt	LTP247	ltpFR	15	8	1	CHIP	303	n/a	0	n/a	0	0	0	n/a	n/a	n/a	n/a	n/a
1815428	REC_WORD	wordpools/wasnorm_wordpool_less_exclusions.txt	LTP247	ltpFR	15	8	1	CAKE	219	n/a	0	n/a	0	0	0	n/a	n/a	n/a	n/a	n/a
1819015	REC_WORD	wordpools/wasnorm_wordpool_less_exclusions.txt	LTP247	ltpFR	15	8	1	CASH	252	n/a	0	n/a	0	0	0	n/a	n/a	n/a	n/a	n/a
1822902	REC_WORD	wordpools/wasnorm_wordpool_less_exclusions.txt	LTP247	ltpFR	15	8	1	VELVET	1555	n/a	0	n/a	0	0	0	n/a	n/a	n/a	n/a	n/a
1824098	REC_WORD	wordpools/wasnorm_wordpool_less_exclusions.txt	LTP247	ltpFR	15	8	1	CROSS	413	n/a	0	n/a	0	0	0	n/a	n/a	n/a	n/a	n/a
1865094	START	n/a	LTP247	ltpFR	15	n/a	n/a	n/a	n/a	n/a	n/a	n/a	n/a	n/a	n/a	n/a	n/a	n/a	n/a	n/a
1866608	PROB	n/a	LTP247	ltpFR	15	n/a	n/a	n/a	n/a	n/a	n/a	10	1	6	3	n/a	n/a	n/a	n/a	n/a
1868555	PROB	n/a	LTP247	ltpFR	15	n/a	n/a	n/a	n/a	n/a	n/a	16	6	5	5	n/a	n/a	n/a	n/a	n/a
1870003	PROB	n/a	LTP247	ltpFR	15	n/a	n/a	n/a	n/a	n/a	n/a	21	9	8	4	n/a	n/a	n/a	n/a	n/a
1873093	STOP	n/a	LTP247	ltpFR	15	n/a	n/a	n/a	n/a	n/a	n/a	n/a	n/a	n/a	n/a	n/a	n/a	n/a	n/a	n/a
1874080	WORD	wordpools/wasnorm_wordpool_less_exclusions.txt	LTP247	ltpFR	15	9	1	CHIMNEY	301	n/a	0	n/a	0	0	0	0	0.5869140625	0.422607421875	lower	../fonts/amplitud.ttf
1877093	START	n/a	LTP247	ltpFR	15	n/a	n/a	n/a	n/a	n/a	n/a	n/a	n/a	n/a	n/a	n/a	n/a	n/a	n/a	n/a
1878191	PROB	n/a	LTP247	ltpFR	15	n/a	n/a	n/a	n/a	n/a	n/a	25	8	8	9	n/a	n/a	n/a	n/a	n/a
1879606	PROB	n/a	LTP247	ltpFR	15	n/a	n/a	n/a	n/a	n/a	n/a	19	6	8	5	n/a	n/a	n/a	n/a	n/a
1881752	PROB	n/a	LTP247	ltpFR	15	n/a	n/a	n/a	n/a	n/a	n/a	10	4	2	4	n/a	n/a	n/a	n/a	n/a
1883034	PROB	n/a	LTP247	ltpFR	15	n/a	n/a	n/a	n/a	n/a	n/a	15	5	7	3	n/a	n/a	n/a	n/a	n/a
1884397	STOP	n/a	LTP247	ltpFR	15	n/a	n/a	n/a	n/a	n/a	n/a	n/a	n/a	n/a	n/a	n/a	n/a	n/a	n/a	n/a
1886063	WORD	wordpools/wasnorm_wordpool_less_exclusions.txt	LTP247	ltpFR	15	9	1	KNEE	784	n/a	0	n/a	0	0	0	0	0.5869140625	0.422607421875	lower	../fonts/amplitud.ttf
1889075	START	n/a	LTP247	ltpFR	15	n/a	n/a	n/a	n/a	n/a	n/a	n/a	n/a	n/a	n/a	n/a	n/a	n/a	n/a	n/a
1890173	PROB	n/a	LTP247	ltpFR	15	n/a	n/a	n/a	n/a	n/a	n/a	15	4	4	7	n/a	n/a	n/a	n/a	n/a
1891539	PROB	n/a	LTP247	ltpFR	15	n/a	n/a	n/a	n/a	n/a	n/a	16	2	8	6	n/a	n/a	n/a	n/a	n/a
1892869	PROB	n/a	LTP247	ltpFR	15	n/a	n/a	n/a	n/a	n/a	n/a	18	9	8	1	n/a	n/a	n/a	n/a	n/a
1894151	PROB	n/a	LTP247	ltpFR	15	n/a	n/a	n/a	n/a	n/a	n/a	22	8	9	5	n/a	n/a	n/a	n/a	n/a
1895805	STOP	n/a	LTP247	ltpFR	15	n/a	n/a	n/a	n/a	n/a	n/a	n/a	n/a	n/a	n/a	n/a	n/a	n/a	n/a	n/a
1897995	WORD	wordpools/wasnorm_wordpool_less_exclusions.txt	LTP247	ltpFR	15	9	0	TECHNICIAN	1443	n/a	1	n/a	0	0	0	1	0.412841796875	0.57763671875	upper	../fonts/zerothre.ttf
1901007	START	n/a	LTP247	ltpFR	15	n/a	n/a	n/a	n/a	n/a	n/a	n/a	n/a	n/a	n/a	n/a	n/a	n/a	n/a	n/a
1901956	PROB	n/a	LTP247	ltpFR	15	n/a	n/a	n/a	n/a	n/a	n/a	16	7	8	1	n/a	n/a	n/a	n/a	n/a
1903387	PROB	n/a	LTP247	ltpFR	15	n/a	n/a	n/a	n/a	n/a	n/a	17	7	4	6	n/a	n/a	n/a	n/a	n/a
1904901	PROB	n/a	LTP247	ltpFR	15	n/a	n/a	n/a	n/a	n/a	n/a	17	2	9	6	n/a	n/a	n/a	n/a	n/a
1906266	PROB	n/a	LTP247	ltpFR	15	n/a	n/a	n/a	n/a	n/a	n/a	15	2	9	4	n/a	n/a	n/a	n/a	n/a
1907693	STOP	n/a	LTP247	ltpFR	15	n/a	n/a	n/a	n/a	n/a	n/a	n/a	n/a	n/a	n/a	n/a	n/a	n/a	n/a	n/a
1910143	WORD	wordpools/wasnorm_wordpool_less_exclusions.txt	LTP247	ltpFR	15	9	0	BATTERY	101	n/a	0	n/a	0	0	0	1	0.412841796875	0.57763671875	upper	../fonts/zerothre.ttf
1913156	START	n/a	LTP247	ltpFR	15	n/a	n/a	n/a	n/a	n/a	n/a	n/a	n/a	n/a	n/a	n/a	n/a	n/a	n/a	n/a
1914104	PROB	n/a	LTP247	ltpFR	15	n/a	n/a	n/a	n/a	n/a	n/a	13	2	6	5	n/a	n/a	n/a	n/a	n/a
1916268	PROB	n/a	LTP247	ltpFR	15	n/a	n/a	n/a	n/a	n/a	n/a	15	1	5	9	n/a	n/a	n/a	n/a	n/a
1918248	PROB	n/a	LTP247	ltpFR	15	n/a	n/a	n/a	n/a	n/a	n/a	16	7	2	7	n/a	n/a	n/a	n/a	n/a
1919877	STOP	n/a	LTP247	ltpFR	15	n/a	n/a	n/a	n/a	n/a	n/a	n/a	n/a	n/a	n/a	n/a	n/a	n/a	n/a	n/a
1922342	WORD	wordpools/wasnorm_wordpool_less_exclusions.txt	LTP247	ltpFR	15	9	1	ATHLETE	52	n/a	1	n/a	0	0	0	0	0.5869140625	0.422607421875	lower	../fonts/amplitud.ttf
1925354	START	n/a	LTP247	ltpFR	15	n/a	n/a	n/a	n/a	n/a	n/a	n/a	n/a	n/a	n/a	n/a	n/a	n/a	n/a	n/a
1926203	PROB	n/a	LTP247	ltpFR	15	n/a	n/a	n/a	n/a	n/a	n/a	12	1	2	9	n/a	n/a	n/a	n/a	n/a
1929448	PROB	n/a	LTP247	ltpFR	15	n/a	n/a	n/a	n/a	n/a	n/a	20	8	4	8	n/a	n/a	n/a	n/a	n/a
1930862	PROB	n/a	LTP247	ltpFR	15	n/a	n/a	n/a	n/a	n/a	n/a	17	1	7	9	n/a	n/a	n/a	n/a	n/a
1932133	STOP	n/a	LTP247	ltpFR	15	n/a	n/a	n/a	n/a	n/a	n/a	n/a	n/a	n/a	n/a	n/a	n/a	n/a	n/a	n/a
1934191	WORD	wordpools/wasnorm_wordpool_less_exclusions.txt	LTP247	ltpFR	15	9	1	SNEAKER	1334	n/a	0	n/a	0	0	0	0	0.5869140625	0.422607421875	lower	../fonts/amplitud.ttf
1937203	START	n/a	LTP247	ltpFR	15	n/a	n/a	n/a	n/a	n/a	n/a	n/a	n/a	n/a	n/a	n/a	n/a	n/a	n/a	n/a
1938384	PROB	n/a	LTP247	ltpFR	15	n/a	n/a	n/a	n/a	n/a	n/a	22	7	6	9	n/a	n/a	n/a	n/a	n/a
1940049	PROB	n/a	LTP247	ltpFR	15	n/a	n/a	n/a	n/a	n/a	n/a	12	6	5	1	n/a	n/a	n/a	n/a	n/a
1941547	PROB	n/a	LTP247	ltpFR	15	n/a	n/a	n/a	n/a	n/a	n/a	12	9	1	2	n/a	n/a	n/a	n/a	n/a
1945203	STOP	n/a	LTP247	ltpFR	15	n/a	n/a	n/a	n/a	n/a	n/a	n/a	n/a	n/a	n/a	n/a	n/a	n/a	n/a	n/a
1946123	WORD	wordpools/wasnorm_wordpool_less_exclusions.txt	LTP247	ltpFR	15	9	0	CIGARETTE	309	n/a	2	n/a	0	0	0	1	0.412841796875	0.57763671875	upper	../fonts/zerothre.ttf
1947371	KEY_MSG	n/a	LTP247	ltpFR	15	9	n/a	n/a	n/a	n/a	n/a	n/a	0	0	0	n/a	n/a	n/a	n/a	n/a
1949136	START	n/a	LTP247	ltpFR	15	n/a	n/a	n/a	n/a	n/a	n/a	n/a	n/a	n/a	n/a	n/a	n/a	n/a	n/a	n/a
1950050	PROB	n/a	LTP247	ltpFR	15	n/a	n/a	n/a	n/a	n/a	n/a	16	6	6	4	n/a	n/a	n/a	n/a	n/a
1951964	PROB	n/a	LTP247	ltpFR	15	n/a	n/a	n/a	n/a	n/a	n/a	10	4	2	4	n/a	n/a	n/a	n/a	n/a
1953346	PROB	n/a	LTP247	ltpFR	15	n/a	n/a	n/a	n/a	n/a	n/a	24	8	8	8	n/a	n/a	n/a	n/a	n/a
1955093	PROB	n/a	LTP247	ltpFR	15	n/a	n/a	n/a	n/a	n/a	n/a	12	5	1	6	n/a	n/a	n/a	n/a	n/a
1956261	STOP	n/a	LTP247	ltpFR	15	n/a	n/a	n/a	n/a	n/a	n/a	n/a	n/a	n/a	n/a	n/a	n/a	n/a	n/a	n/a
1958271	WORD	wordpools/wasnorm_wordpool_less_exclusions.txt	LTP247	ltpFR	15	9	0	WEED	1599	n/a	0	n/a	0	0	0	1	0.412841796875	0.57763671875	upper	../fonts/zerothre.ttf
1961284	START	n/a	LTP247	ltpFR	15	n/a	n/a	n/a	n/a	n/a	n/a	n/a	n/a	n/a	n/a	n/a	n/a	n/a	n/a	n/a
1962382	PROB	n/a	LTP247	ltpFR	15	n/a	n/a	n/a	n/a	n/a	n/a	8	6	1	1	n/a	n/a	n/a	n/a	n/a
1964096	PROB	n/a	LTP247	ltpFR	15	n/a	n/a	n/a	n/a	n/a	n/a	20	9	8	3	n/a	n/a	n/a	n/a	n/a
1965810	PROB	n/a	LTP247	ltpFR	15	n/a	n/a	n/a	n/a	n/a	n/a	20	5	9	6	n/a	n/a	n/a	n/a	n/a
1968757	STOP	n/a	LTP247	ltpFR	15	n/a	n/a	n/a	n/a	n/a	n/a	n/a	n/a	n/a	n/a	n/a	n/a	n/a	n/a	n/a
1970220	WORD	wordpools/wasnorm_wordpool_less_exclusions.txt	LTP247	ltpFR	15	9	0	BOWL	158	n/a	0	n/a	0	0	0	1	0.412841796875	0.57763671875	upper	../fonts/zerothre.ttf
1973233	START	n/a	LTP247	ltpFR	15	n/a	n/a	n/a	n/a	n/a	n/a	n/a	n/a	n/a	n/a	n/a	n/a	n/a	n/a	n/a
1974198	PROB	n/a	LTP247	ltpFR	15	n/a	n/a	n/a	n/a	n/a	n/a	17	8	8	1	n/a	n/a	n/a	n/a	n/a
1975912	PROB	n/a	LTP247	ltpFR	15	n/a	n/a	n/a	n/a	n/a	n/a	6	2	3	1	n/a	n/a	n/a	n/a	n/a
1977593	PROB	n/a	LTP247	ltpFR	15	n/a	n/a	n/a	n/a	n/a	n/a	21	9	6	6	n/a	n/a	n/a	n/a	n/a
1979174	PROB	n/a	LTP247	ltpFR	15	n/a	n/a	n/a	n/a	n/a	n/a	10	5	1	4	n/a	n/a	n/a	n/a	n/a
1980717	STOP	n/a	LTP247	ltpFR	15	n/a	n/a	n/a	n/a	n/a	n/a	n/a	n/a	n/a	n/a	n/a	n/a	n/a	n/a	n/a
1982136	WORD	wordpools/wasnorm_wordpool_less_exclusions.txt	LTP247	ltpFR	15	9	0	CRYSTAL	418	n/a	0	n/a	0	0	0	1	0.412841796875	0.57763671875	upper	../fonts/zerothre.ttf
1985148	START	n/a	LTP247	ltpFR	15	n/a	n/a	n/a	n/a	n/a	n/a	n/a	n/a	n/a	n/a	n/a	n/a	n/a	n/a	n/a
1986130	PROB	n/a	LTP247	ltpFR	15	n/a	n/a	n/a	n/a	n/a	n/a	22	6	7	9	n/a	n/a	n/a	n/a	n/a
1987794	PROB	n/a	LTP247	ltpFR	15	n/a	n/a	n/a	n/a	n/a	n/a	21	7	5	9	n/a	n/a	n/a	n/a	n/a
1989408	PROB	n/a	LTP247	ltpFR	15	n/a	n/a	n/a	n/a	n/a	n/a	18	8	3	7	n/a	n/a	n/a	n/a	n/a
1990790	PROB	n/a	LTP247	ltpFR	15	n/a	n/a	n/a	n/a	n/a	n/a	14	9	4	1	n/a	n/a	n/a	n/a	n/a
1992621	STOP	n/a	LTP247	ltpFR	15	n/a	n/a	n/a	n/a	n/a	n/a	n/a	n/a	n/a	n/a	n/a	n/a	n/a	n/a	n/a
1994268	WORD	wordpools/wasnorm_wordpool_less_exclusions.txt	LTP247	ltpFR	15	9	0	MOWER	928	n/a	1	n/a	0	0	0	1	0.412841796875	0.57763671875	upper	../fonts/zerothre.ttf
1997280	START	n/a	LTP247	ltpFR	15	n/a	n/a	n/a	n/a	n/a	n/a	n/a	n/a	n/a	n/a	n/a	n/a	n/a	n/a	n/a
1998295	PROB	n/a	LTP247	ltpFR	15	n/a	n/a	n/a	n/a	n/a	n/a	7	1	3	3	n/a	n/a	n/a	n/a	n/a
2000059	PROB	n/a	LTP247	ltpFR	15	n/a	n/a	n/a	n/a	n/a	n/a	20	8	9	3	n/a	n/a	n/a	n/a	n/a
2001890	PROB	n/a	LTP247	ltpFR	15	n/a	n/a	n/a	n/a	n/a	n/a	22	5	9	8	n/a	n/a	n/a	n/a	n/a
2005280	STOP	n/a	LTP247	ltpFR	15	n/a	n/a	n/a	n/a	n/a	n/a	n/a	n/a	n/a	n/a	n/a	n/a	n/a	n/a	n/a
2006300	WORD	wordpools/wasnorm_wordpool_less_exclusions.txt	LTP247	ltpFR	15	9	0	CLIMBER	323	n/a	1	n/a	0	0	0	1	0.412841796875	0.57763671875	upper	../fonts/zerothre.ttf
2009312	START	n/a	LTP247	ltpFR	15	n/a	n/a	n/a	n/a	n/a	n/a	n/a	n/a	n/a	n/a	n/a	n/a	n/a	n/a	n/a
2010261	PROB	n/a	LTP247	ltpFR	15	n/a	n/a	n/a	n/a	n/a	n/a	23	8	9	6	n/a	n/a	n/a	n/a	n/a
2013339	PROB	n/a	LTP247	ltpFR	15	n/a	n/a	n/a	n/a	n/a	n/a	11	1	1	9	n/a	n/a	n/a	n/a	n/a
2014571	PROB	n/a	LTP247	ltpFR	15	n/a	n/a	n/a	n/a	n/a	n/a	18	8	6	4	n/a	n/a	n/a	n/a	n/a
2015861	STOP	n/a	LTP247	ltpFR	15	n/a	n/a	n/a	n/a	n/a	n/a	n/a	n/a	n/a	n/a	n/a	n/a	n/a	n/a	n/a
2018365	WORD	wordpools/wasnorm_wordpool_less_exclusions.txt	LTP247	ltpFR	15	9	1	MOTHER	921	n/a	1	n/a	0	0	0	0	0.5869140625	0.422607421875	lower	../fonts/amplitud.ttf
2021378	START	n/a	LTP247	ltpFR	15	n/a	n/a	n/a	n/a	n/a	n/a	n/a	n/a	n/a	n/a	n/a	n/a	n/a	n/a	n/a
2022193	PROB	n/a	LTP247	ltpFR	15	n/a	n/a	n/a	n/a	n/a	n/a	14	4	3	7	n/a	n/a	n/a	n/a	n/a
2023840	PROB	n/a	LTP247	ltpFR	15	n/a	n/a	n/a	n/a	n/a	n/a	16	8	4	4	n/a	n/a	n/a	n/a	n/a
2025571	PROB	n/a	LTP247	ltpFR	15	n/a	n/a	n/a	n/a	n/a	n/a	21	7	9	5	n/a	n/a	n/a	n/a	n/a
2027435	PROB	n/a	LTP247	ltpFR	15	n/a	n/a	n/a	n/a	n/a	n/a	15	4	5	6	n/a	n/a	n/a	n/a	n/a
2029013	STOP	n/a	LTP247	ltpFR	15	n/a	n/a	n/a	n/a	n/a	n/a	n/a	n/a	n/a	n/a	n/a	n/a	n/a	n/a	n/a
2030281	WORD	wordpools/wasnorm_wordpool_less_exclusions.txt	LTP247	ltpFR	15	9	1	CHIEF	298	n/a	1	n/a	0	0	0	0	0.5869140625	0.422607421875	lower	../fonts/amplitud.ttf
2033293	START	n/a	LTP247	ltpFR	15	n/a	n/a	n/a	n/a	n/a	n/a	n/a	n/a	n/a	n/a	n/a	n/a	n/a	n/a	n/a
2034308	PROB	n/a	LTP247	ltpFR	15	n/a	n/a	n/a	n/a	n/a	n/a	11	2	1	8	n/a	n/a	n/a	n/a	n/a
2035589	PROB	n/a	LTP247	ltpFR	15	n/a	n/a	n/a	n/a	n/a	n/a	16	5	6	5	n/a	n/a	n/a	n/a	n/a
2036971	PROB	n/a	LTP247	ltpFR	15	n/a	n/a	n/a	n/a	n/a	n/a	16	7	3	6	n/a	n/a	n/a	n/a	n/a
2038269	PROB	n/a	LTP247	ltpFR	15	n/a	n/a	n/a	n/a	n/a	n/a	11	4	4	3	n/a	n/a	n/a	n/a	n/a
2039534	PROB	n/a	LTP247	ltpFR	15	n/a	n/a	n/a	n/a	n/a	n/a	15	5	8	2	n/a	n/a	n/a	n/a	n/a
2040925	STOP	n/a	LTP247	ltpFR	15	n/a	n/a	n/a	n/a	n/a	n/a	n/a	n/a	n/a	n/a	n/a	n/a	n/a	n/a	n/a
2042213	WORD	wordpools/wasnorm_wordpool_less_exclusions.txt	LTP247	ltpFR	15	9	1	LUNCH	849	n/a	0	n/a	0	0	0	0	0.5869140625	0.422607421875	lower	../fonts/amplitud.ttf
2045225	START	n/a	LTP247	ltpFR	15	n/a	n/a	n/a	n/a	n/a	n/a	n/a	n/a	n/a	n/a	n/a	n/a	n/a	n/a	n/a
2046257	PROB	n/a	LTP247	ltpFR	15	n/a	n/a	n/a	n/a	n/a	n/a	17	2	8	7	n/a	n/a	n/a	n/a	n/a
2048220	PROB	n/a	LTP247	ltpFR	15	n/a	n/a	n/a	n/a	n/a	n/a	16	3	7	6	n/a	n/a	n/a	n/a	n/a
2050201	PROB	n/a	LTP247	ltpFR	15	n/a	n/a	n/a	n/a	n/a	n/a	19	8	6	5	n/a	n/a	n/a	n/a	n/a
2053225	STOP	n/a	LTP247	ltpFR	15	n/a	n/a	n/a	n/a	n/a	n/a	n/a	n/a	n/a	n/a	n/a	n/a	n/a	n/a	n/a
2054328	WORD	wordpools/wasnorm_wordpool_less_exclusions.txt	LTP247	ltpFR	15	9	1	TRAY	1498	n/a	0	n/a	0	0	0	0	0.5869140625	0.422607421875	lower	../fonts/amplitud.ttf
2057340	START	n/a	LTP247	ltpFR	15	n/a	n/a	n/a	n/a	n/a	n/a	n/a	n/a	n/a	n/a	n/a	n/a	n/a	n/a	n/a
2058355	PROB	n/a	LTP247	ltpFR	15	n/a	n/a	n/a	n/a	n/a	n/a	24	9	7	8	n/a	n/a	n/a	n/a	n/a
2060536	PROB	n/a	LTP247	ltpFR	15	n/a	n/a	n/a	n/a	n/a	n/a	14	1	9	4	n/a	n/a	n/a	n/a	n/a
2065340	STOP	n/a	LTP247	ltpFR	15	n/a	n/a	n/a	n/a	n/a	n/a	n/a	n/a	n/a	n/a	n/a	n/a	n/a	n/a	n/a
2067243	REC_START	n/a	LTP247	ltpFR	15	9	n/a	n/a	n/a	n/a	n/a	n/a	0	0	0	n/a	n/a	n/a	n/a	n/a
2070702	REC_WORD	wordpools/wasnorm_wordpool_less_exclusions.txt	LTP247	ltpFR	15	9	1	TRAY	1498	n/a	0	n/a	0	0	0	n/a	n/a	n/a	n/a	n/a
2071620	REC_WORD	wordpools/wasnorm_wordpool_less_exclusions.txt	LTP247	ltpFR	15	9	0	CIGARETTE	309	n/a	2	n/a	0	0	0	n/a	n/a	n/a	n/a	n/a
2072890	REC_WORD	wordpools/wasnorm_wordpool_less_exclusions.txt	LTP247	ltpFR	15	9	0	WEED	1599	n/a	0	n/a	0	0	0	n/a	n/a	n/a	n/a	n/a
2073791	REC_WORD	wordpools/wasnorm_wordpool_less_exclusions.txt	LTP247	ltpFR	15	9	1	MOTHER	921	n/a	1	n/a	0	0	0	n/a	n/a	n/a	n/a	n/a
2074932	REC_WORD	wordpools/wasnorm_wordpool_less_exclusions.txt	LTP247	ltpFR	15	9	1	CHIEF	298	n/a	1	n/a	0	0	0	n/a	n/a	n/a	n/a	n/a
2154662	START	n/a	LTP247	ltpFR	15	n/a	n/a	n/a	n/a	n/a	n/a	n/a	n/a	n/a	n/a	n/a	n/a	n/a	n/a	n/a
2156176	PROB	n/a	LTP247	ltpFR	15	n/a	n/a	n/a	n/a	n/a	n/a	13	6	4	3	n/a	n/a	n/a	n/a	n/a
2157707	PROB	n/a	LTP247	ltpFR	15	n/a	n/a	n/a	n/a	n/a	n/a	14	6	1	7	n/a	n/a	n/a	n/a	n/a
2159587	PROB	n/a	LTP247	ltpFR	15	n/a	n/a	n/a	n/a	n/a	n/a	16	7	2	7	n/a	n/a	n/a	n/a	n/a
2160902	PROB	n/a	LTP247	ltpFR	15	n/a	n/a	n/a	n/a	n/a	n/a	16	6	4	6	n/a	n/a	n/a	n/a	n/a
2162117	PROB	n/a	LTP247	ltpFR	15	n/a	n/a	n/a	n/a	n/a	n/a	14	6	1	7	n/a	n/a	n/a	n/a	n/a
2163848	PROB	n/a	LTP247	ltpFR	15	n/a	n/a	n/a	n/a	n/a	n/a	19	7	7	5	n/a	n/a	n/a	n/a	n/a
2165246	PROB	n/a	LTP247	ltpFR	15	n/a	n/a	n/a	n/a	n/a	n/a	13	3	9	1	n/a	n/a	n/a	n/a	n/a
2166545	PROB	n/a	LTP247	ltpFR	15	n/a	n/a	n/a	n/a	n/a	n/a	15	6	4	5	n/a	n/a	n/a	n/a	n/a
2167842	PROB	n/a	LTP247	ltpFR	15	n/a	n/a	n/a	n/a	n/a	n/a	18	7	8	3	n/a	n/a	n/a	n/a	n/a
2169173	STOP	n/a	LTP247	ltpFR	15	n/a	n/a	n/a	n/a	n/a	n/a	n/a	n/a	n/a	n/a	n/a	n/a	n/a	n/a	n/a
2171869	WORD	wordpools/wasnorm_wordpool_less_exclusions.txt	LTP247	ltpFR	15	10	0	DEPUTY	450	n/a	1	n/a	0	0	0	1	0.412841796875	0.57763671875	upper	../fonts/zerothre.ttf
2174882	START	n/a	LTP247	ltpFR	15	n/a	n/a	n/a	n/a	n/a	n/a	n/a	n/a	n/a	n/a	n/a	n/a	n/a	n/a	n/a
2175713	PROB	n/a	LTP247	ltpFR	15	n/a	n/a	n/a	n/a	n/a	n/a	12	1	6	5	n/a	n/a	n/a	n/a	n/a
2177328	PROB	n/a	LTP247	ltpFR	15	n/a	n/a	n/a	n/a	n/a	n/a	14	5	1	8	n/a	n/a	n/a	n/a	n/a
2178992	PROB	n/a	LTP247	ltpFR	15	n/a	n/a	n/a	n/a	n/a	n/a	12	8	1	3	n/a	n/a	n/a	n/a	n/a
2180739	PROB	n/a	LTP247	ltpFR	15	n/a	n/a	n/a	n/a	n/a	n/a	18	8	4	6	n/a	n/a	n/a	n/a	n/a
2182270	PROB	n/a	LTP247	ltpFR	15	n/a	n/a	n/a	n/a	n/a	n/a	10	6	3	1	n/a	n/a	n/a	n/a	n/a
2184816	PROB	n/a	LTP247	ltpFR	15	n/a	n/a	n/a	n/a	n/a	n/a	14	4	8	2	n/a	n/a	n/a	n/a	n/a
2186264	PROB	n/a	LTP247	ltpFR	15	n/a	n/a	n/a	n/a	n/a	n/a	18	7	2	9	n/a	n/a	n/a	n/a	n/a
2188062	PROB	n/a	LTP247	ltpFR	15	n/a	n/a	n/a	n/a	n/a	n/a	20	7	9	4	n/a	n/a	n/a	n/a	n/a
2189973	STOP	n/a	LTP247	ltpFR	15	n/a	n/a	n/a	n/a	n/a	n/a	n/a	n/a	n/a	n/a	n/a	n/a	n/a	n/a	n/a
2192022	WORD	wordpools/wasnorm_wordpool_less_exclusions.txt	LTP247	ltpFR	15	10	0	HAY	693	n/a	0	n/a	0	0	0	1	0.412841796875	0.57763671875	upper	../fonts/zerothre.ttf
2195035	START	n/a	LTP247	ltpFR	15	n/a	n/a	n/a	n/a	n/a	n/a	n/a	n/a	n/a	n/a	n/a	n/a	n/a	n/a	n/a
2196066	PROB	n/a	LTP247	ltpFR	15	n/a	n/a	n/a	n/a	n/a	n/a	21	7	7	7	n/a	n/a	n/a	n/a	n/a
2197331	PROB	n/a	LTP247	ltpFR	15	n/a	n/a	n/a	n/a	n/a	n/a	13	8	3	2	n/a	n/a	n/a	n/a	n/a
2199212	PROB	n/a	LTP247	ltpFR	15	n/a	n/a	n/a	n/a	n/a	n/a	18	6	5	7	n/a	n/a	n/a	n/a	n/a
2200676	PROB	n/a	LTP247	ltpFR	15	n/a	n/a	n/a	n/a	n/a	n/a	10	7	1	2	n/a	n/a	n/a	n/a	n/a
2203272	PROB	n/a	LTP247	ltpFR	15	n/a	n/a	n/a	n/a	n/a	n/a	19	5	6	8	n/a	n/a	n/a	n/a	n/a
2204886	PROB	n/a	LTP247	ltpFR	15	n/a	n/a	n/a	n/a	n/a	n/a	13	8	4	1	n/a	n/a	n/a	n/a	n/a
2206251	PROB	n/a	LTP247	ltpFR	15	n/a	n/a	n/a	n/a	n/a	n/a	12	4	4	4	n/a	n/a	n/a	n/a	n/a
2207849	PROB	n/a	LTP247	ltpFR	15	n/a	n/a	n/a	n/a	n/a	n/a	21	7	5	9	n/a	n/a	n/a	n/a	n/a
2209510	STOP	n/a	LTP247	ltpFR	15	n/a	n/a	n/a	n/a	n/a	n/a	n/a	n/a	n/a	n/a	n/a	n/a	n/a	n/a	n/a
2212026	WORD	wordpools/wasnorm_wordpool_less_exclusions.txt	LTP247	ltpFR	15	10	0	KEYBOARD	774	n/a	0	n/a	0	0	0	1	0.412841796875	0.57763671875	upper	../fonts/zerothre.ttf
2215039	START	n/a	LTP247	ltpFR	15	n/a	n/a	n/a	n/a	n/a	n/a	n/a	n/a	n/a	n/a	n/a	n/a	n/a	n/a	n/a
2216070	PROB	n/a	LTP247	ltpFR	15	n/a	n/a	n/a	n/a	n/a	n/a	14	7	1	6	n/a	n/a	n/a	n/a	n/a
2217617	PROB	n/a	LTP247	ltpFR	15	n/a	n/a	n/a	n/a	n/a	n/a	22	8	8	6	n/a	n/a	n/a	n/a	n/a
2219581	PROB	n/a	LTP247	ltpFR	15	n/a	n/a	n/a	n/a	n/a	n/a	17	7	8	2	n/a	n/a	n/a	n/a	n/a
2221329	PROB	n/a	LTP247	ltpFR	15	n/a	n/a	n/a	n/a	n/a	n/a	15	1	5	9	n/a	n/a	n/a	n/a	n/a
2222959	PROB	n/a	LTP247	ltpFR	15	n/a	n/a	n/a	n/a	n/a	n/a	20	9	2	9	n/a	n/a	n/a	n/a	n/a
2224541	PROB	n/a	LTP247	ltpFR	15	n/a	n/a	n/a	n/a	n/a	n/a	14	8	5	1	n/a	n/a	n/a	n/a	n/a
2226321	PROB	n/a	LTP247	ltpFR	15	n/a	n/a	n/a	n/a	n/a	n/a	26	6	8	9	n/a	n/a	n/a	n/a	n/a
2228152	PROB	n/a	LTP247	ltpFR	15	n/a	n/a	n/a	n/a	n/a	n/a	9	1	5	3	n/a	n/a	n/a	n/a	n/a
2230629	STOP	n/a	LTP247	ltpFR	15	n/a	n/a	n/a	n/a	n/a	n/a	n/a	n/a	n/a	n/a	n/a	n/a	n/a	n/a	n/a
2232046	WORD	wordpools/wasnorm_wordpool_less_exclusions.txt	LTP247	ltpFR	15	10	1	ZUCCHINI	1638	n/a	0	n/a	0	0	0	0	0.5869140625	0.422607421875	lower	../fonts/amplitud.ttf
2235059	START	n/a	LTP247	ltpFR	15	n/a	n/a	n/a	n/a	n/a	n/a	n/a	n/a	n/a	n/a	n/a	n/a	n/a	n/a	n/a
2236107	PROB	n/a	LTP247	ltpFR	15	n/a	n/a	n/a	n/a	n/a	n/a	22	9	4	9	n/a	n/a	n/a	n/a	n/a
2237554	PROB	n/a	LTP247	ltpFR	15	n/a	n/a	n/a	n/a	n/a	n/a	14	1	4	9	n/a	n/a	n/a	n/a	n/a
2239451	PROB	n/a	LTP247	ltpFR	15	n/a	n/a	n/a	n/a	n/a	n/a	20	7	9	4	n/a	n/a	n/a	n/a	n/a
2241049	PROB	n/a	LTP247	ltpFR	15	n/a	n/a	n/a	n/a	n/a	n/a	18	7	8	3	n/a	n/a	n/a	n/a	n/a
2242880	PROB	n/a	LTP247	ltpFR	15	n/a	n/a	n/a	n/a	n/a	n/a	18	6	8	4	n/a	n/a	n/a	n/a	n/a
2244577	PROB	n/a	LTP247	ltpFR	15	n/a	n/a	n/a	n/a	n/a	n/a	10	6	2	2	n/a	n/a	n/a	n/a	n/a
2246391	PROB	n/a	LTP247	ltpFR	15	n/a	n/a	n/a	n/a	n/a	n/a	17	8	4	5	n/a	n/a	n/a	n/a	n/a
2248005	PROB	n/a	LTP247	ltpFR	15	n/a	n/a	n/a	n/a	n/a	n/a	11	2	2	7	n/a	n/a	n/a	n/a	n/a
2249621	STOP	n/a	LTP247	ltpFR	15	n/a	n/a	n/a	n/a	n/a	n/a	n/a	n/a	n/a	n/a	n/a	n/a	n/a	n/a	n/a
2252066	WORD	wordpools/wasnorm_wordpool_less_exclusions.txt	LTP247	ltpFR	15	10	1	WHIP	1604	n/a	0	n/a	0	0	0	0	0.5869140625	0.422607421875	lower	../fonts/amplitud.ttf
2255079	START	n/a	LTP247	ltpFR	15	n/a	n/a	n/a	n/a	n/a	n/a	n/a	n/a	n/a	n/a	n/a	n/a	n/a	n/a	n/a
2256243	PROB	n/a	LTP247	ltpFR	15	n/a	n/a	n/a	n/a	n/a	n/a	17	1	7	9	n/a	n/a	n/a	n/a	n/a
2257874	PROB	n/a	LTP247	ltpFR	15	n/a	n/a	n/a	n/a	n/a	n/a	13	2	6	5	n/a	n/a	n/a	n/a	n/a
2260370	PROB	n/a	LTP247	ltpFR	15	n/a	n/a	n/a	n/a	n/a	n/a	17	4	8	5	n/a	n/a	n/a	n/a	n/a
2261801	PROB	n/a	LTP247	ltpFR	15	n/a	n/a	n/a	n/a	n/a	n/a	19	8	6	5	n/a	n/a	n/a	n/a	n/a
2263266	PROB	n/a	LTP247	ltpFR	15	n/a	n/a	n/a	n/a	n/a	n/a	17	4	4	9	n/a	n/a	n/a	n/a	n/a
2265396	PROB	n/a	LTP247	ltpFR	15	n/a	n/a	n/a	n/a	n/a	n/a	18	3	8	7	n/a	n/a	n/a	n/a	n/a
2267410	PROB	n/a	LTP247	ltpFR	15	n/a	n/a	n/a	n/a	n/a	n/a	11	2	8	1	n/a	n/a	n/a	n/a	n/a
2268641	PROB	n/a	LTP247	ltpFR	15	n/a	n/a	n/a	n/a	n/a	n/a	18	9	3	6	n/a	n/a	n/a	n/a	n/a
2270117	STOP	n/a	LTP247	ltpFR	15	n/a	n/a	n/a	n/a	n/a	n/a	n/a	n/a	n/a	n/a	n/a	n/a	n/a	n/a	n/a
2272169	WORD	wordpools/wasnorm_wordpool_less_exclusions.txt	LTP247	ltpFR	15	10	1	BADGE	68	n/a	0	n/a	0	0	0	0	0.5869140625	0.422607421875	lower	../fonts/amplitud.ttf
2275182	START	n/a	LTP247	ltpFR	15	n/a	n/a	n/a	n/a	n/a	n/a	n/a	n/a	n/a	n/a	n/a	n/a	n/a	n/a	n/a
2276313	PROB	n/a	LTP247	ltpFR	15	n/a	n/a	n/a	n/a	n/a	n/a	24	9	9	6	n/a	n/a	n/a	n/a	n/a
2278260	PROB	n/a	LTP247	ltpFR	15	n/a	n/a	n/a	n/a	n/a	n/a	19	9	4	6	n/a	n/a	n/a	n/a	n/a
2279808	PROB	n/a	LTP247	ltpFR	15	n/a	n/a	n/a	n/a	n/a	n/a	23	7	8	8	n/a	n/a	n/a	n/a	n/a
2282288	PROB	n/a	LTP247	ltpFR	15	n/a	n/a	n/a	n/a	n/a	n/a	15	5	4	6	n/a	n/a	n/a	n/a	n/a
2284002	PROB	n/a	LTP247	ltpFR	15	n/a	n/a	n/a	n/a	n/a	n/a	15	2	8	5	n/a	n/a	n/a	n/a	n/a
2285350	PROB	n/a	LTP247	ltpFR	15	n/a	n/a	n/a	n/a	n/a	n/a	20	4	7	9	n/a	n/a	n/a	n/a	n/a
2287729	PROB	n/a	LTP247	ltpFR	15	n/a	n/a	n/a	n/a	n/a	n/a	17	7	2	8	n/a	n/a	n/a	n/a	n/a
2291181	STOP	n/a	LTP247	ltpFR	15	n/a	n/a	n/a	n/a	n/a	n/a	n/a	n/a	n/a	n/a	n/a	n/a	n/a	n/a	n/a
2292239	WORD	wordpools/wasnorm_wordpool_less_exclusions.txt	LTP247	ltpFR	15	10	1	ASSISTANT	48	n/a	1	n/a	0	0	0	0	0.5869140625	0.422607421875	lower	../fonts/amplitud.ttf
2295252	START	n/a	LTP247	ltpFR	15	n/a	n/a	n/a	n/a	n/a	n/a	n/a	n/a	n/a	n/a	n/a	n/a	n/a	n/a	n/a
2296433	PROB	n/a	LTP247	ltpFR	15	n/a	n/a	n/a	n/a	n/a	n/a	9	2	3	4	n/a	n/a	n/a	n/a	n/a
2298081	PROB	n/a	LTP247	ltpFR	15	n/a	n/a	n/a	n/a	n/a	n/a	8	2	4	2	n/a	n/a	n/a	n/a	n/a
2299878	PROB	n/a	LTP247	ltpFR	15	n/a	n/a	n/a	n/a	n/a	n/a	19	6	7	6	n/a	n/a	n/a	n/a	n/a
2301426	PROB	n/a	LTP247	ltpFR	15	n/a	n/a	n/a	n/a	n/a	n/a	12	5	5	2	n/a	n/a	n/a	n/a	n/a
2302957	PROB	n/a	LTP247	ltpFR	15	n/a	n/a	n/a	n/a	n/a	n/a	16	6	8	2	n/a	n/a	n/a	n/a	n/a
2304388	PROB	n/a	LTP247	ltpFR	15	n/a	n/a	n/a	n/a	n/a	n/a	17	1	7	9	n/a	n/a	n/a	n/a	n/a
2305969	PROB	n/a	LTP247	ltpFR	15	n/a	n/a	n/a	n/a	n/a	n/a	11	9	1	1	n/a	n/a	n/a	n/a	n/a
2307633	PROB	n/a	LTP247	ltpFR	15	n/a	n/a	n/a	n/a	n/a	n/a	20	9	5	6	n/a	n/a	n/a	n/a	n/a
2309725	STOP	n/a	LTP247	ltpFR	15	n/a	n/a	n/a	n/a	n/a	n/a	n/a	n/a	n/a	n/a	n/a	n/a	n/a	n/a	n/a
2312126	WORD	wordpools/wasnorm_wordpool_less_exclusions.txt	LTP247	ltpFR	15	10	0	COOKBOOK	373	n/a	1	n/a	0	0	0	1	0.412841796875	0.57763671875	upper	../fonts/zerothre.ttf
2315139	START	n/a	LTP247	ltpFR	15	n/a	n/a	n/a	n/a	n/a	n/a	n/a	n/a	n/a	n/a	n/a	n/a	n/a	n/a	n/a
2316170	PROB	n/a	LTP247	ltpFR	15	n/a	n/a	n/a	n/a	n/a	n/a	17	1	9	7	n/a	n/a	n/a	n/a	n/a
2317968	PROB	n/a	LTP247	ltpFR	15	n/a	n/a	n/a	n/a	n/a	n/a	21	6	7	8	n/a	n/a	n/a	n/a	n/a
2319500	PROB	n/a	LTP247	ltpFR	15	n/a	n/a	n/a	n/a	n/a	n/a	16	6	6	4	n/a	n/a	n/a	n/a	n/a
2321013	PROB	n/a	LTP247	ltpFR	15	n/a	n/a	n/a	n/a	n/a	n/a	11	1	8	2	n/a	n/a	n/a	n/a	n/a
2322827	PROB	n/a	LTP247	ltpFR	15	n/a	n/a	n/a	n/a	n/a	n/a	17	7	6	4	n/a	n/a	n/a	n/a	n/a
2324408	PROB	n/a	LTP247	ltpFR	15	n/a	n/a	n/a	n/a	n/a	n/a	15	7	4	4	n/a	n/a	n/a	n/a	n/a
2326105	PROB	n/a	LTP247	ltpFR	15	n/a	n/a	n/a	n/a	n/a	n/a	16	8	6	2	n/a	n/a	n/a	n/a	n/a
2327553	PROB	n/a	LTP247	ltpFR	15	n/a	n/a	n/a	n/a	n/a	n/a	14	6	6	2	n/a	n/a	n/a	n/a	n/a
2329051	PROB	n/a	LTP247	ltpFR	15	n/a	n/a	n/a	n/a	n/a	n/a	14	7	2	5	n/a	n/a	n/a	n/a	n/a
2330909	STOP	n/a	LTP247	ltpFR	15	n/a	n/a	n/a	n/a	n/a	n/a	n/a	n/a	n/a	n/a	n/a	n/a	n/a	n/a	n/a
2332246	WORD	wordpools/wasnorm_wordpool_less_exclusions.txt	LTP247	ltpFR	15	10	0	RESTAURANT	1187	n/a	1	n/a	0	0	0	1	0.412841796875	0.57763671875	upper	../fonts/zerothre.ttf
2335259	START	n/a	LTP247	ltpFR	15	n/a	n/a	n/a	n/a	n/a	n/a	n/a	n/a	n/a	n/a	n/a	n/a	n/a	n/a	n/a
2336174	PROB	n/a	LTP247	ltpFR	15	n/a	n/a	n/a	n/a	n/a	n/a	19	4	8	7	n/a	n/a	n/a	n/a	n/a
2338304	PROB	n/a	LTP247	ltpFR	15	n/a	n/a	n/a	n/a	n/a	n/a	10	5	3	2	n/a	n/a	n/a	n/a	n/a
2340384	PROB	n/a	LTP247	ltpFR	15	n/a	n/a	n/a	n/a	n/a	n/a	18	3	6	9	n/a	n/a	n/a	n/a	n/a
2342348	PROB	n/a	LTP247	ltpFR	15	n/a	n/a	n/a	n/a	n/a	n/a	15	8	4	3	n/a	n/a	n/a	n/a	n/a
2343613	PROB	n/a	LTP247	ltpFR	15	n/a	n/a	n/a	n/a	n/a	n/a	11	7	2	2	n/a	n/a	n/a	n/a	n/a
2346509	PROB	n/a	LTP247	ltpFR	15	n/a	n/a	n/a	n/a	n/a	n/a	14	8	1	5	n/a	n/a	n/a	n/a	n/a
2348339	PROB	n/a	LTP247	ltpFR	15	n/a	n/a	n/a	n/a	n/a	n/a	8	3	2	3	n/a	n/a	n/a	n/a	n/a
2349837	STOP	n/a	LTP247	ltpFR	15	n/a	n/a	n/a	n/a	n/a	n/a	n/a	n/a	n/a	n/a	n/a	n/a	n/a	n/a	n/a
2352383	WORD	wordpools/wasnorm_wordpool_less_exclusions.txt	LTP247	ltpFR	15	10	1	CELLO	268	n/a	0	n/a	0	0	0	0	0.5869140625	0.422607421875	lower	../fonts/amplitud.ttf
2355395	START	n/a	LTP247	ltpFR	15	n/a	n/a	n/a	n/a	n/a	n/a	n/a	n/a	n/a	n/a	n/a	n/a	n/a	n/a	n/a
2356260	PROB	n/a	LTP247	ltpFR	15	n/a	n/a	n/a	n/a	n/a	n/a	25	9	8	8	n/a	n/a	n/a	n/a	n/a
2358241	PROB	n/a	LTP247	ltpFR	15	n/a	n/a	n/a	n/a	n/a	n/a	13	5	6	2	n/a	n/a	n/a	n/a	n/a
2360055	PROB	n/a	LTP247	ltpFR	15	n/a	n/a	n/a	n/a	n/a	n/a	13	7	4	2	n/a	n/a	n/a	n/a	n/a
2361669	PROB	n/a	LTP247	ltpFR	15	n/a	n/a	n/a	n/a	n/a	n/a	18	3	9	6	n/a	n/a	n/a	n/a	n/a
2363283	PROB	n/a	LTP247	ltpFR	15	n/a	n/a	n/a	n/a	n/a	n/a	11	1	2	8	n/a	n/a	n/a	n/a	n/a
2364549	PROB	n/a	LTP247	ltpFR	15	n/a	n/a	n/a	n/a	n/a	n/a	9	5	1	3	n/a	n/a	n/a	n/a	n/a
2366029	PROB	n/a	LTP247	ltpFR	15	n/a	n/a	n/a	n/a	n/a	n/a	13	1	8	4	n/a	n/a	n/a	n/a	n/a
2368276	PROB	n/a	LTP247	ltpFR	15	n/a	n/a	n/a	n/a	n/a	n/a	5	1	1	3	n/a	n/a	n/a	n/a	n/a
2371395	STOP	n/a	LTP247	ltpFR	15	n/a	n/a	n/a	n/a	n/a	n/a	n/a	n/a	n/a	n/a	n/a	n/a	n/a	n/a	n/a
2372253	WORD	wordpools/wasnorm_wordpool_less_exclusions.txt	LTP247	ltpFR	15	10	1	ZOO	1637	n/a	0	n/a	0	0	0	0	0.5869140625	0.422607421875	lower	../fonts/amplitud.ttf
2375266	START	n/a	LTP247	ltpFR	15	n/a	n/a	n/a	n/a	n/a	n/a	n/a	n/a	n/a	n/a	n/a	n/a	n/a	n/a	n/a
2376397	PROB	n/a	LTP247	ltpFR	15	n/a	n/a	n/a	n/a	n/a	n/a	10	7	1	2	n/a	n/a	n/a	n/a	n/a
2378228	PROB	n/a	LTP247	ltpFR	15	n/a	n/a	n/a	n/a	n/a	n/a	15	7	4	4	n/a	n/a	n/a	n/a	n/a
2380258	PROB	n/a	LTP247	ltpFR	15	n/a	n/a	n/a	n/a	n/a	n/a	9	4	2	3	n/a	n/a	n/a	n/a	n/a
2381889	PROB	n/a	LTP247	ltpFR	15	n/a	n/a	n/a	n/a	n/a	n/a	16	1	7	8	n/a	n/a	n/a	n/a	n/a
2383719	PROB	n/a	LTP247	ltpFR	15	n/a	n/a	n/a	n/a	n/a	n/a	20	3	9	8	n/a	n/a	n/a	n/a	n/a
2385650	PROB	n/a	LTP247	ltpFR	15	n/a	n/a	n/a	n/a	n/a	n/a	15	5	9	1	n/a	n/a	n/a	n/a	n/a
2387614	PROB	n/a	LTP247	ltpFR	15	n/a	n/a	n/a	n/a	n/a	n/a	20	9	2	9	n/a	n/a	n/a	n/a	n/a
2391266	STOP	n/a	LTP247	ltpFR	15	n/a	n/a	n/a	n/a	n/a	n/a	n/a	n/a	n/a	n/a	n/a	n/a	n/a	n/a	n/a
2392223	WORD	wordpools/wasnorm_wordpool_less_exclusions.txt	LTP247	ltpFR	15	10	1	MINK	897	n/a	0	n/a	0	0	0	0	0.5869140625	0.422607421875	lower	../fonts/amplitud.ttf
2395236	START	n/a	LTP247	ltpFR	15	n/a	n/a	n/a	n/a	n/a	n/a	n/a	n/a	n/a	n/a	n/a	n/a	n/a	n/a	n/a
2396184	PROB	n/a	LTP247	ltpFR	15	n/a	n/a	n/a	n/a	n/a	n/a	24	8	9	7	n/a	n/a	n/a	n/a	n/a
2398331	PROB	n/a	LTP247	ltpFR	15	n/a	n/a	n/a	n/a	n/a	n/a	19	4	6	9	n/a	n/a	n/a	n/a	n/a
2400394	PROB	n/a	LTP247	ltpFR	15	n/a	n/a	n/a	n/a	n/a	n/a	20	4	8	8	n/a	n/a	n/a	n/a	n/a
2402526	PROB	n/a	LTP247	ltpFR	15	n/a	n/a	n/a	n/a	n/a	n/a	16	6	5	5	n/a	n/a	n/a	n/a	n/a
2404622	PROB	n/a	LTP247	ltpFR	15	n/a	n/a	n/a	n/a	n/a	n/a	18	5	6	7	n/a	n/a	n/a	n/a	n/a
2406402	PROB	n/a	LTP247	ltpFR	15	n/a	n/a	n/a	n/a	n/a	n/a	12	1	6	5	n/a	n/a	n/a	n/a	n/a
2408749	PROB	n/a	LTP247	ltpFR	15	n/a	n/a	n/a	n/a	n/a	n/a	20	7	7	6	n/a	n/a	n/a	n/a	n/a
2410309	STOP	n/a	LTP247	ltpFR	15	n/a	n/a	n/a	n/a	n/a	n/a	n/a	n/a	n/a	n/a	n/a	n/a	n/a	n/a	n/a
2412110	WORD	wordpools/wasnorm_wordpool_less_exclusions.txt	LTP247	ltpFR	15	10	1	MOTORCYCLE	923	n/a	0	n/a	0	0	0	0	0.5869140625	0.422607421875	lower	../fonts/amplitud.ttf
2415123	START	n/a	LTP247	ltpFR	15	n/a	n/a	n/a	n/a	n/a	n/a	n/a	n/a	n/a	n/a	n/a	n/a	n/a	n/a	n/a
2416237	PROB	n/a	LTP247	ltpFR	15	n/a	n/a	n/a	n/a	n/a	n/a	12	2	3	7	n/a	n/a	n/a	n/a	n/a
2417635	PROB	n/a	LTP247	ltpFR	15	n/a	n/a	n/a	n/a	n/a	n/a	15	1	5	9	n/a	n/a	n/a	n/a	n/a
2419250	PROB	n/a	LTP247	ltpFR	15	n/a	n/a	n/a	n/a	n/a	n/a	25	9	8	8	n/a	n/a	n/a	n/a	n/a
2420864	PROB	n/a	LTP247	ltpFR	15	n/a	n/a	n/a	n/a	n/a	n/a	15	4	7	4	n/a	n/a	n/a	n/a	n/a
2422345	PROB	n/a	LTP247	ltpFR	15	n/a	n/a	n/a	n/a	n/a	n/a	13	9	1	3	n/a	n/a	n/a	n/a	n/a
2423843	PROB	n/a	LTP247	ltpFR	15	n/a	n/a	n/a	n/a	n/a	n/a	17	5	7	5	n/a	n/a	n/a	n/a	n/a
2425840	PROB	n/a	LTP247	ltpFR	15	n/a	n/a	n/a	n/a	n/a	n/a	15	1	7	7	n/a	n/a	n/a	n/a	n/a
2427903	PROB	n/a	LTP247	ltpFR	15	n/a	n/a	n/a	n/a	n/a	n/a	13	7	3	3	n/a	n/a	n/a	n/a	n/a
2429551	PROB	n/a	LTP247	ltpFR	15	n/a	n/a	n/a	n/a	n/a	n/a	10	4	1	5	n/a	n/a	n/a	n/a	n/a
2431053	STOP	n/a	LTP247	ltpFR	15	n/a	n/a	n/a	n/a	n/a	n/a	n/a	n/a	n/a	n/a	n/a	n/a	n/a	n/a	n/a
2432280	WORD	wordpools/wasnorm_wordpool_less_exclusions.txt	LTP247	ltpFR	15	10	0	CHEF	290	n/a	1	n/a	0	0	0	1	0.412841796875	0.57763671875	upper	../fonts/zerothre.ttf
2435293	START	n/a	LTP247	ltpFR	15	n/a	n/a	n/a	n/a	n/a	n/a	n/a	n/a	n/a	n/a	n/a	n/a	n/a	n/a	n/a
2436441	PROB	n/a	LTP247	ltpFR	15	n/a	n/a	n/a	n/a	n/a	n/a	21	8	9	4	n/a	n/a	n/a	n/a	n/a
2437839	PROB	n/a	LTP247	ltpFR	15	n/a	n/a	n/a	n/a	n/a	n/a	5	1	3	1	n/a	n/a	n/a	n/a	n/a
2439436	PROB	n/a	LTP247	ltpFR	15	n/a	n/a	n/a	n/a	n/a	n/a	19	6	8	5	n/a	n/a	n/a	n/a	n/a
2440967	PROB	n/a	LTP247	ltpFR	15	n/a	n/a	n/a	n/a	n/a	n/a	16	2	9	5	n/a	n/a	n/a	n/a	n/a
2442533	PROB	n/a	LTP247	ltpFR	15	n/a	n/a	n/a	n/a	n/a	n/a	13	1	8	4	n/a	n/a	n/a	n/a	n/a
2444978	PROB	n/a	LTP247	ltpFR	15	n/a	n/a	n/a	n/a	n/a	n/a	15	1	9	5	n/a	n/a	n/a	n/a	n/a
2446510	PROB	n/a	LTP247	ltpFR	15	n/a	n/a	n/a	n/a	n/a	n/a	17	7	1	9	n/a	n/a	n/a	n/a	n/a
2448805	PROB	n/a	LTP247	ltpFR	15	n/a	n/a	n/a	n/a	n/a	n/a	16	8	4	4	n/a	n/a	n/a	n/a	n/a
2450445	STOP	n/a	LTP247	ltpFR	15	n/a	n/a	n/a	n/a	n/a	n/a	n/a	n/a	n/a	n/a	n/a	n/a	n/a	n/a	n/a
2452334	WORD	wordpools/wasnorm_wordpool_less_exclusions.txt	LTP247	ltpFR	15	10	0	BISON	131	n/a	1	n/a	0	0	0	1	0.412841796875	0.57763671875	upper	../fonts/zerothre.ttf
2455346	START	n/a	LTP247	ltpFR	15	n/a	n/a	n/a	n/a	n/a	n/a	n/a	n/a	n/a	n/a	n/a	n/a	n/a	n/a	n/a
2456394	PROB	n/a	LTP247	ltpFR	15	n/a	n/a	n/a	n/a	n/a	n/a	9	3	5	1	n/a	n/a	n/a	n/a	n/a
2457859	PROB	n/a	LTP247	ltpFR	15	n/a	n/a	n/a	n/a	n/a	n/a	8	3	1	4	n/a	n/a	n/a	n/a	n/a
2459773	PROB	n/a	LTP247	ltpFR	15	n/a	n/a	n/a	n/a	n/a	n/a	11	7	2	2	n/a	n/a	n/a	n/a	n/a
2461087	PROB	n/a	LTP247	ltpFR	15	n/a	n/a	n/a	n/a	n/a	n/a	25	7	9	9	n/a	n/a	n/a	n/a	n/a
2463068	PROB	n/a	LTP247	ltpFR	15	n/a	n/a	n/a	n/a	n/a	n/a	12	2	1	9	n/a	n/a	n/a	n/a	n/a
2464715	PROB	n/a	LTP247	ltpFR	15	n/a	n/a	n/a	n/a	n/a	n/a	16	9	5	2	n/a	n/a	n/a	n/a	n/a
2466230	PROB	n/a	LTP247	ltpFR	15	n/a	n/a	n/a	n/a	n/a	n/a	15	3	3	9	n/a	n/a	n/a	n/a	n/a
2468459	PROB	n/a	LTP247	ltpFR	15	n/a	n/a	n/a	n/a	n/a	n/a	13	7	1	5	n/a	n/a	n/a	n/a	n/a
2470285	STOP	n/a	LTP247	ltpFR	15	n/a	n/a	n/a	n/a	n/a	n/a	n/a	n/a	n/a	n/a	n/a	n/a	n/a	n/a	n/a
2472504	WORD	wordpools/wasnorm_wordpool_less_exclusions.txt	LTP247	ltpFR	15	10	0	LEOPARD	812	n/a	1	n/a	0	0	0	1	0.412841796875	0.57763671875	upper	../fonts/zerothre.ttf
2475517	START	n/a	LTP247	ltpFR	15	n/a	n/a	n/a	n/a	n/a	n/a	n/a	n/a	n/a	n/a	n/a	n/a	n/a	n/a	n/a
2476364	PROB	n/a	LTP247	ltpFR	15	n/a	n/a	n/a	n/a	n/a	n/a	10	3	4	3	n/a	n/a	n/a	n/a	n/a
2477845	PROB	n/a	LTP247	ltpFR	15	n/a	n/a	n/a	n/a	n/a	n/a	22	8	6	8	n/a	n/a	n/a	n/a	n/a
2479343	PROB	n/a	LTP247	ltpFR	15	n/a	n/a	n/a	n/a	n/a	n/a	15	6	2	7	n/a	n/a	n/a	n/a	n/a
2481274	PROB	n/a	LTP247	ltpFR	15	n/a	n/a	n/a	n/a	n/a	n/a	9	1	5	3	n/a	n/a	n/a	n/a	n/a
2483054	PROB	n/a	LTP247	ltpFR	15	n/a	n/a	n/a	n/a	n/a	n/a	23	7	7	9	n/a	n/a	n/a	n/a	n/a
2484785	PROB	n/a	LTP247	ltpFR	15	n/a	n/a	n/a	n/a	n/a	n/a	7	2	4	1	n/a	n/a	n/a	n/a	n/a
2486349	PROB	n/a	LTP247	ltpFR	15	n/a	n/a	n/a	n/a	n/a	n/a	8	3	1	4	n/a	n/a	n/a	n/a	n/a
2488197	PROB	n/a	LTP247	ltpFR	15	n/a	n/a	n/a	n/a	n/a	n/a	18	7	7	4	n/a	n/a	n/a	n/a	n/a
2490381	STOP	n/a	LTP247	ltpFR	15	n/a	n/a	n/a	n/a	n/a	n/a	n/a	n/a	n/a	n/a	n/a	n/a	n/a	n/a	n/a
2493423	REC_START	n/a	LTP247	ltpFR	15	10	n/a	n/a	n/a	n/a	n/a	n/a	0	0	0	n/a	n/a	n/a	n/a	n/a
2495899	REC_WORD	wordpools/wasnorm_wordpool_less_exclusions.txt	LTP247	ltpFR	15	10	0	LEOPARD	812	n/a	1	n/a	0	0	0	n/a	n/a	n/a	n/a	n/a
2496666	REC_WORD	wordpools/wasnorm_wordpool_less_exclusions.txt	LTP247	ltpFR	15	10	0	BISON	131	n/a	1	n/a	0	0	0	n/a	n/a	n/a	n/a	n/a
2497462	REC_WORD	wordpools/wasnorm_wordpool_less_exclusions.txt	LTP247	ltpFR	15	10	0	CHEF	290	n/a	1	n/a	0	0	0	n/a	n/a	n/a	n/a	n/a
2498457	REC_WORD	wordpools/wasnorm_wordpool_less_exclusions.txt	LTP247	ltpFR	15	10	0	RESTAURANT	1187	n/a	1	n/a	0	0	0	n/a	n/a	n/a	n/a	n/a
2499568	REC_WORD	wordpools/wasnorm_wordpool_less_exclusions.txt	LTP247	ltpFR	15	10	0	COOKBOOK	373	n/a	1	n/a	0	0	0	n/a	n/a	n/a	n/a	n/a
2501371	REC_WORD	wordpools/wasnorm_wordpool_less_exclusions.txt	LTP247	ltpFR	15	10	0	DEPUTY	450	n/a	1	n/a	0	0	0	n/a	n/a	n/a	n/a	n/a
2502351	REC_WORD	wordpools/wasnorm_wordpool_less_exclusions.txt	LTP247	ltpFR	15	10	0	HAY	693	n/a	0	n/a	0	0	0	n/a	n/a	n/a	n/a	n/a
2504597	REC_WORD	wordpools/wasnorm_wordpool_less_exclusions.txt	LTP247	ltpFR	15	10	1	ZUCCHINI	1638	n/a	0	n/a	0	0	0	n/a	n/a	n/a	n/a	n/a
2569026	REST_REWET	n/a	LTP247	ltpFR	15	10	n/a	n/a	n/a	n/a	n/a	n/a	0	0	0	n/a	n/a	n/a	n/a	n/a
2984722	WORD	wordpools/wasnorm_wordpool_less_exclusions.txt	LTP247	ltpFR	15	11	0	GLOBE	641	n/a	1	n/a	0	0	0	1	0.412841796875	0.57763671875	upper	../fonts/zerothre.ttf
2988666	WORD	wordpools/wasnorm_wordpool_less_exclusions.txt	LTP247	ltpFR	15	11	0	TORCH	1484	n/a	1	n/a	0	0	0	1	0.412841796875	0.57763671875	upper	../fonts/zerothre.ttf
