onset	duration	trial_type	sample	stim_file	subject	experiment	session	trial	task	item_name	item_num	recog_conf	resp	color_b	color_g	color_r	case	font
286.392	n/a	SESS_START	143196	n/a	LTP254	ltpFR	4	n/a	n/a	n/a	n/a	n/a	n/a	n/a	n/a	n/a	n/a	n/a
385.946	n/a	WORD	192973	wordpools/wasnorm_wordpool_less_exclusions.txt	LTP254	ltpFR	4	1	0	BABY	64	n/a	0	1	0.412841796875	0.57763671875	upper	../fonts/zerothre.ttf
389.824	n/a	WORD	194912	wordpools/wasnorm_wordpool_less_exclusions.txt	LTP254	ltpFR	4	1	0	POWDER	1117	n/a	0	1	0.412841796875	0.57763671875	upper	../fonts/zerothre.ttf
393.836	n/a	WORD	196918	wordpools/wasnorm_wordpool_less_exclusions.txt	LTP254	ltpFR	4	1	0	JUDGE	761	n/a	1	1	0.412841796875	0.57763671875	upper	../fonts/zerothre.ttf
398.012	n/a	WORD	199006	wordpools/wasnorm_wordpool_less_exclusions.txt	LTP254	ltpFR	4	1	0	TURKEY	1520	n/a	1	1	0.412841796875	0.57763671875	upper	../fonts/zerothre.ttf
401.874	n/a	WORD	200937	wordpools/wasnorm_wordpool_less_exclusions.txt	LTP254	ltpFR	4	1	1	KEY	773	n/a	0	0	0.5869140625	0.422607421875	lower	../fonts/amplitud.ttf
405.95	n/a	WORD	202975	wordpools/wasnorm_wordpool_less_exclusions.txt	LTP254	ltpFR	4	1	1	DRESSER	496	n/a	0	0	0.5869140625	0.422607421875	lower	../fonts/amplitud.ttf
410.078	n/a	WORD	205039	wordpools/wasnorm_wordpool_less_exclusions.txt	LTP254	ltpFR	4	1	1	SUPERMARKET	1409	n/a	0	0	0.5869140625	0.422607421875	lower	../fonts/amplitud.ttf
414.09	n/a	WORD	207045	wordpools/wasnorm_wordpool_less_exclusions.txt	LTP254	ltpFR	4	1	1	TOWEL	1489	n/a	0	0	0.5869140625	0.422607421875	lower	../fonts/amplitud.ttf
418.084	n/a	WORD	209042	wordpools/wasnorm_wordpool_less_exclusions.txt	LTP254	ltpFR	4	1	1	MINER	896	n/a	1	0	0.5869140625	0.422607421875	lower	../fonts/amplitud.ttf
422.26	n/a	WORD	211130	wordpools/wasnorm_wordpool_less_exclusions.txt	LTP254	ltpFR	4	1	1	CELLAR	267	n/a	0	0	0.5869140625	0.422607421875	lower	../fonts/amplitud.ttf
426.122	n/a	WORD	213061	wordpools/wasnorm_wordpool_less_exclusions.txt	LTP254	ltpFR	4	1	0	SUSPECT	1415	n/a	1	1	0.412841796875	0.57763671875	upper	../fonts/zerothre.ttf
429.964	n/a	WORD	214982	wordpools/wasnorm_wordpool_less_exclusions.txt	LTP254	ltpFR	4	1	0	WASHCLOTH	1591	n/a	0	1	0.412841796875	0.57763671875	upper	../fonts/zerothre.ttf
433.876	n/a	WORD	216938	wordpools/wasnorm_wordpool_less_exclusions.txt	LTP254	ltpFR	4	1	0	CAT	257	n/a	0	1	0.412841796875	0.57763671875	upper	../fonts/zerothre.ttf
438.086	n/a	WORD	219043	wordpools/wasnorm_wordpool_less_exclusions.txt	LTP254	ltpFR	4	1	0	CREATURE	403	n/a	1	1	0.412841796875	0.57763671875	upper	../fonts/zerothre.ttf
442.064	n/a	WORD	221032	wordpools/wasnorm_wordpool_less_exclusions.txt	LTP254	ltpFR	4	1	1	FLOWER	584	n/a	1	0	0.5869140625	0.422607421875	lower	../fonts/amplitud.ttf
445.99	n/a	WORD	222995	wordpools/wasnorm_wordpool_less_exclusions.txt	LTP254	ltpFR	4	1	1	VASE	1549	n/a	0	0	0.5869140625	0.422607421875	lower	../fonts/amplitud.ttf
451.834	n/a	REC_START	225917	n/a	LTP254	ltpFR	4	1	n/a	n/a	n/a	n/a	n/a	n/a	n/a	n/a	n/a	n/a
452.226	n/a	REC_WORD	226113	wordpools/wasnorm_wordpool_less_exclusions.txt	LTP254	ltpFR	4	1	1	FLOWER	584	n/a	1	n/a	n/a	n/a	n/a	n/a
453.004	n/a	REC_WORD	226502	wordpools/wasnorm_wordpool_less_exclusions.txt	LTP254	ltpFR	4	1	1	VASE	1549	n/a	0	n/a	n/a	n/a	n/a	n/a
454.154	n/a	REC_WORD	227077	wordpools/wasnorm_wordpool_less_exclusions.txt	LTP254	ltpFR	4	1	0	JUDGE	761	n/a	1	n/a	n/a	n/a	n/a	n/a
455.3	n/a	REC_WORD	227650	wordpools/wasnorm_wordpool_less_exclusions.txt	LTP254	ltpFR	4	1	0	SUSPECT	1415	n/a	1	n/a	n/a	n/a	n/a	n/a
457.052	n/a	REC_WORD	228526	wordpools/wasnorm_wordpool_less_exclusions.txt	LTP254	ltpFR	4	1	0	BABY	64	n/a	0	n/a	n/a	n/a	n/a	n/a
458.23	n/a	REC_WORD	229115	wordpools/wasnorm_wordpool_less_exclusions.txt	LTP254	ltpFR	4	1	1	DRESSER	496	n/a	0	n/a	n/a	n/a	n/a	n/a
459.528	n/a	REC_WORD	229764	wordpools/wasnorm_wordpool_less_exclusions.txt	LTP254	ltpFR	4	1	1	MINER	896	n/a	1	n/a	n/a	n/a	n/a	n/a
460.534	n/a	REC_WORD	230267	wordpools/wasnorm_wordpool_less_exclusions.txt	LTP254	ltpFR	4	1	1	CELLAR	267	n/a	0	n/a	n/a	n/a	n/a	n/a
462.532	n/a	REC_WORD	231266	wordpools/wasnorm_wordpool_less_exclusions.txt	LTP254	ltpFR	4	1	0	POWDER	1117	n/a	0	n/a	n/a	n/a	n/a	n/a
466.562	n/a	REC_WORD	233281	wordpools/wasnorm_wordpool_less_exclusions.txt	LTP254	ltpFR	4	1	0	CAT	257	n/a	0	n/a	n/a	n/a	n/a	n/a
467.86	n/a	REC_WORD	233930	wordpools/wasnorm_wordpool_less_exclusions.txt	LTP254	ltpFR	4	1	0	CREATURE	403	n/a	1	n/a	n/a	n/a	n/a	n/a
470.418	n/a	REC_WORD	235209	wordpools/wasnorm_wordpool_less_exclusions.txt	LTP254	ltpFR	4	1	1	KEY	773	n/a	0	n/a	n/a	n/a	n/a	n/a
552.966	n/a	WORD	276483	wordpools/wasnorm_wordpool_less_exclusions.txt	LTP254	ltpFR	4	2	1	MOTHER	921	n/a	1	0	0.5869140625	0.422607421875	lower	../fonts/amplitud.ttf
557.144	n/a	WORD	278572	wordpools/wasnorm_wordpool_less_exclusions.txt	LTP254	ltpFR	4	2	1	GUARDIAN	668	n/a	1	0	0.5869140625	0.422607421875	lower	../fonts/amplitud.ttf
561.004	n/a	WORD	280502	wordpools/wasnorm_wordpool_less_exclusions.txt	LTP254	ltpFR	4	2	0	THICKET	1455	n/a	1	1	0.412841796875	0.57763671875	upper	../fonts/zerothre.ttf
565.2	n/a	WORD	282600	wordpools/wasnorm_wordpool_less_exclusions.txt	LTP254	ltpFR	4	2	0	KNOT	788	n/a	0	1	0.412841796875	0.57763671875	upper	../fonts/zerothre.ttf
569.31	n/a	WORD	284655	wordpools/wasnorm_wordpool_less_exclusions.txt	LTP254	ltpFR	4	2	1	BRIDGE	174	n/a	0	0	0.5869140625	0.422607421875	lower	../fonts/amplitud.ttf
573.42	n/a	WORD	286710	wordpools/wasnorm_wordpool_less_exclusions.txt	LTP254	ltpFR	4	2	1	RAISIN	1163	n/a	0	0	0.5869140625	0.422607421875	lower	../fonts/amplitud.ttf
577.548	n/a	WORD	288774	wordpools/wasnorm_wordpool_less_exclusions.txt	LTP254	ltpFR	4	2	1	BEAVER	109	n/a	1	0	0.5869140625	0.422607421875	lower	../fonts/amplitud.ttf
581.524	n/a	WORD	290762	wordpools/wasnorm_wordpool_less_exclusions.txt	LTP254	ltpFR	4	2	0	MONSTER	912	n/a	1	1	0.412841796875	0.57763671875	upper	../fonts/zerothre.ttf
585.668	n/a	WORD	292834	wordpools/wasnorm_wordpool_less_exclusions.txt	LTP254	ltpFR	4	2	0	PEANUT	1032	n/a	0	1	0.412841796875	0.57763671875	upper	../fonts/zerothre.ttf
589.662	n/a	WORD	294831	wordpools/wasnorm_wordpool_less_exclusions.txt	LTP254	ltpFR	4	2	0	PECAN	1036	n/a	0	1	0.412841796875	0.57763671875	upper	../fonts/zerothre.ttf
593.824	n/a	WORD	296912	wordpools/wasnorm_wordpool_less_exclusions.txt	LTP254	ltpFR	4	2	0	SHARK	1275	n/a	1	1	0.412841796875	0.57763671875	upper	../fonts/zerothre.ttf
597.784	n/a	WORD	298892	wordpools/wasnorm_wordpool_less_exclusions.txt	LTP254	ltpFR	4	2	0	STRING	1394	n/a	0	1	0.412841796875	0.57763671875	upper	../fonts/zerothre.ttf
601.812	n/a	WORD	300906	wordpools/wasnorm_wordpool_less_exclusions.txt	LTP254	ltpFR	4	2	0	CONTINENT	367	n/a	1	1	0.412841796875	0.57763671875	upper	../fonts/zerothre.ttf
605.972	n/a	WORD	302986	wordpools/wasnorm_wordpool_less_exclusions.txt	LTP254	ltpFR	4	2	1	TANK	1432	n/a	0	0	0.5869140625	0.422607421875	lower	../fonts/amplitud.ttf
610.016	n/a	WORD	305008	wordpools/wasnorm_wordpool_less_exclusions.txt	LTP254	ltpFR	4	2	1	POND	1101	n/a	0	0	0.5869140625	0.422607421875	lower	../fonts/amplitud.ttf
614.06	n/a	WORD	307030	wordpools/wasnorm_wordpool_less_exclusions.txt	LTP254	ltpFR	4	2	1	RAM	1165	n/a	1	0	0.5869140625	0.422607421875	lower	../fonts/amplitud.ttf
620.202	n/a	REC_START	310101	n/a	LTP254	ltpFR	4	2	n/a	n/a	n/a	n/a	n/a	n/a	n/a	n/a	n/a	n/a
620.958	n/a	REC_WORD	310479	wordpools/wasnorm_wordpool_less_exclusions.txt	LTP254	ltpFR	4	2	1	RAM	1165	n/a	1	n/a	n/a	n/a	n/a	n/a
621.828	n/a	REC_WORD	310914	wordpools/wasnorm_wordpool_less_exclusions.txt	LTP254	ltpFR	4	2	1	POND	1101	n/a	0	n/a	n/a	n/a	n/a	n/a
622.706	n/a	REC_WORD	311353	wordpools/wasnorm_wordpool_less_exclusions.txt	LTP254	ltpFR	4	2	0	THICKET	1455	n/a	1	n/a	n/a	n/a	n/a	n/a
623.974	n/a	REC_WORD	311987	wordpools/wasnorm_wordpool_less_exclusions.txt	LTP254	ltpFR	4	2	0	CONTINENT	367	n/a	1	n/a	n/a	n/a	n/a	n/a
625.622	n/a	REC_WORD	312811	wordpools/wasnorm_wordpool_less_exclusions.txt	LTP254	ltpFR	4	2	1	BRIDGE	174	n/a	0	n/a	n/a	n/a	n/a	n/a
626.666	n/a	REC_WORD	313333	wordpools/wasnorm_wordpool_less_exclusions.txt	LTP254	ltpFR	4	2	1	MOTHER	921	n/a	1	n/a	n/a	n/a	n/a	n/a
628.036	n/a	REC_WORD	314018	wordpools/wasnorm_wordpool_less_exclusions.txt	LTP254	ltpFR	4	2	1	GUARDIAN	668	n/a	1	n/a	n/a	n/a	n/a	n/a
630.97	n/a	REC_WORD	315485	wordpools/wasnorm_wordpool_less_exclusions.txt	LTP254	ltpFR	4	2	0	MONSTER	912	n/a	1	n/a	n/a	n/a	n/a	n/a
632.42	n/a	REC_WORD	316210	wordpools/wasnorm_wordpool_less_exclusions.txt	LTP254	ltpFR	4	2	0	KNOT	788	n/a	0	n/a	n/a	n/a	n/a	n/a
633.676	n/a	REC_WORD	316838	wordpools/wasnorm_wordpool_less_exclusions.txt	LTP254	ltpFR	4	2	0	STRING	1394	n/a	0	n/a	n/a	n/a	n/a	n/a
641.972	n/a	REC_WORD	320986	wordpools/wasnorm_wordpool_less_exclusions.txt	LTP254	ltpFR	4	2	1	RAISIN	1163	n/a	0	n/a	n/a	n/a	n/a	n/a
679.67	n/a	REC_WORD	339835	wordpools/wasnorm_wordpool_less_exclusions.txt	LTP254	ltpFR	4	2	1	RAM	1165	n/a	1	n/a	n/a	n/a	n/a	n/a
732.318	n/a	WORD	366159	wordpools/wasnorm_wordpool_less_exclusions.txt	LTP254	ltpFR	4	3	0	WHALE	1601	n/a	1	1	0.412841796875	0.57763671875	upper	../fonts/zerothre.ttf
736.212	n/a	WORD	368106	wordpools/wasnorm_wordpool_less_exclusions.txt	LTP254	ltpFR	4	3	0	TRUMPET	1513	n/a	0	1	0.412841796875	0.57763671875	upper	../fonts/zerothre.ttf
740.408	n/a	WORD	370204	wordpools/wasnorm_wordpool_less_exclusions.txt	LTP254	ltpFR	4	3	0	CHICKEN	297	n/a	0	1	0.412841796875	0.57763671875	upper	../fonts/zerothre.ttf
744.584	n/a	WORD	372292	wordpools/wasnorm_wordpool_less_exclusions.txt	LTP254	ltpFR	4	3	0	CARDINAL	244	n/a	0	1	0.412841796875	0.57763671875	upper	../fonts/zerothre.ttf
748.712	n/a	WORD	374356	wordpools/wasnorm_wordpool_less_exclusions.txt	LTP254	ltpFR	4	3	0	DOLLAR	482	n/a	0	1	0.412841796875	0.57763671875	upper	../fonts/zerothre.ttf
752.772	n/a	WORD	376386	wordpools/wasnorm_wordpool_less_exclusions.txt	LTP254	ltpFR	4	3	0	SCALE	1241	n/a	1	1	0.412841796875	0.57763671875	upper	../fonts/zerothre.ttf
756.666	n/a	WORD	378333	wordpools/wasnorm_wordpool_less_exclusions.txt	LTP254	ltpFR	4	3	0	PLAZA	1088	n/a	1	1	0.412841796875	0.57763671875	upper	../fonts/zerothre.ttf
760.826	n/a	WORD	380413	wordpools/wasnorm_wordpool_less_exclusions.txt	LTP254	ltpFR	4	3	0	HARP	689	n/a	1	1	0.412841796875	0.57763671875	upper	../fonts/zerothre.ttf
764.854	n/a	WORD	382427	wordpools/wasnorm_wordpool_less_exclusions.txt	LTP254	ltpFR	4	3	0	BRUNETTE	181	n/a	1	1	0.412841796875	0.57763671875	upper	../fonts/zerothre.ttf
768.832	n/a	WORD	384416	wordpools/wasnorm_wordpool_less_exclusions.txt	LTP254	ltpFR	4	3	0	EAGLE	512	n/a	1	1	0.412841796875	0.57763671875	upper	../fonts/zerothre.ttf
772.826	n/a	WORD	386413	wordpools/wasnorm_wordpool_less_exclusions.txt	LTP254	ltpFR	4	3	0	CAGE	218	n/a	1	1	0.412841796875	0.57763671875	upper	../fonts/zerothre.ttf
776.736	n/a	WORD	388368	wordpools/wasnorm_wordpool_less_exclusions.txt	LTP254	ltpFR	4	3	0	TWEEZERS	1526	n/a	0	1	0.412841796875	0.57763671875	upper	../fonts/zerothre.ttf
780.896	n/a	WORD	390448	wordpools/wasnorm_wordpool_less_exclusions.txt	LTP254	ltpFR	4	3	0	GAZELLE	628	n/a	1	1	0.412841796875	0.57763671875	upper	../fonts/zerothre.ttf
784.94	n/a	WORD	392470	wordpools/wasnorm_wordpool_less_exclusions.txt	LTP254	ltpFR	4	3	0	WILDERNESS	1610	n/a	1	1	0.412841796875	0.57763671875	upper	../fonts/zerothre.ttf
788.884	n/a	WORD	394442	wordpools/wasnorm_wordpool_less_exclusions.txt	LTP254	ltpFR	4	3	0	TURTLE	1522	n/a	0	1	0.412841796875	0.57763671875	upper	../fonts/zerothre.ttf
792.878	n/a	WORD	396439	wordpools/wasnorm_wordpool_less_exclusions.txt	LTP254	ltpFR	4	3	0	SLUG	1329	n/a	0	1	0.412841796875	0.57763671875	upper	../fonts/zerothre.ttf
798.888	n/a	REC_START	399444	n/a	LTP254	ltpFR	4	3	n/a	n/a	n/a	n/a	n/a	n/a	n/a	n/a	n/a	n/a
799.3	n/a	REC_WORD	399650	wordpools/wasnorm_wordpool_less_exclusions.txt	LTP254	ltpFR	4	3	0	SLUG	1329	n/a	0	n/a	n/a	n/a	n/a	n/a
800.298	n/a	REC_WORD	400149	wordpools/wasnorm_wordpool_less_exclusions.txt	LTP254	ltpFR	4	3	0	TURTLE	1522	n/a	0	n/a	n/a	n/a	n/a	n/a
801.494	n/a	REC_WORD	400747	wordpools/wasnorm_wordpool_less_exclusions.txt	LTP254	ltpFR	4	3	0	WILDERNESS	1610	n/a	1	n/a	n/a	n/a	n/a	n/a
802.704	n/a	REC_WORD	401352	wordpools/wasnorm_wordpool_less_exclusions.txt	LTP254	ltpFR	4	3	0	EAGLE	512	n/a	1	n/a	n/a	n/a	n/a	n/a
803.96	n/a	REC_WORD	401980	wordpools/wasnorm_wordpool_less_exclusions.txt	LTP254	ltpFR	4	3	0	CHICKEN	297	n/a	0	n/a	n/a	n/a	n/a	n/a
805.608	n/a	REC_WORD	402804	wordpools/wasnorm_wordpool_less_exclusions.txt	LTP254	ltpFR	4	3	0	CAGE	218	n/a	1	n/a	n/a	n/a	n/a	n/a
807.114	n/a	REC_WORD	403557	wordpools/wasnorm_wordpool_less_exclusions.txt	LTP254	ltpFR	4	3	0	WHALE	1601	n/a	1	n/a	n/a	n/a	n/a	n/a
808.476	n/a	REC_WORD	404238	wordpools/wasnorm_wordpool_less_exclusions.txt	LTP254	ltpFR	4	3	0	HARP	689	n/a	1	n/a	n/a	n/a	n/a	n/a
809.758	n/a	REC_WORD	404879	wordpools/wasnorm_wordpool_less_exclusions.txt	LTP254	ltpFR	4	3	0	SCALE	1241	n/a	1	n/a	n/a	n/a	n/a	n/a
811.67	n/a	REC_WORD	405835	wordpools/wasnorm_wordpool_less_exclusions.txt	LTP254	ltpFR	4	3	0	PLAZA	1088	n/a	1	n/a	n/a	n/a	n/a	n/a
815.664	n/a	REC_WORD	407832	wordpools/wasnorm_wordpool_less_exclusions.txt	LTP254	ltpFR	4	3	0	TRUMPET	1513	n/a	0	n/a	n/a	n/a	n/a	n/a
820.294	n/a	REC_WORD	410147	wordpools/wasnorm_wordpool_less_exclusions.txt	LTP254	ltpFR	4	3	0	BRUNETTE	181	n/a	1	n/a	n/a	n/a	n/a	n/a
836.534	n/a	REC_WORD	418267	wordpools/wasnorm_wordpool_less_exclusions.txt	LTP254	ltpFR	4	3	0	DOLLAR	482	n/a	0	n/a	n/a	n/a	n/a	n/a
844.978	n/a	REC_WORD	422489	wordpools/wasnorm_wordpool_less_exclusions.txt	LTP254	ltpFR	4	3	n/a	SPARROW	1347	n/a	n/a	n/a	n/a	n/a	n/a	n/a
898.672	n/a	WORD	449336	wordpools/wasnorm_wordpool_less_exclusions.txt	LTP254	ltpFR	4	4	-1	SUITE	1404	n/a	-1	1	1.0	1.0	upper	../fonts/Verdana.ttf
902.8	n/a	WORD	451400	wordpools/wasnorm_wordpool_less_exclusions.txt	LTP254	ltpFR	4	4	-1	ROOM	1206	n/a	-1	1	1.0	1.0	upper	../fonts/Verdana.ttf
906.778	n/a	WORD	453389	wordpools/wasnorm_wordpool_less_exclusions.txt	LTP254	ltpFR	4	4	-1	BAY	102	n/a	-1	1	1.0	1.0	upper	../fonts/Verdana.ttf
910.954	n/a	WORD	455477	wordpools/wasnorm_wordpool_less_exclusions.txt	LTP254	ltpFR	4	4	-1	OTTER	986	n/a	-1	1	1.0	1.0	upper	../fonts/Verdana.ttf
915.048	n/a	WORD	457524	wordpools/wasnorm_wordpool_less_exclusions.txt	LTP254	ltpFR	4	4	-1	WHISKERS	1605	n/a	-1	1	1.0	1.0	upper	../fonts/Verdana.ttf
919.176	n/a	WORD	459588	wordpools/wasnorm_wordpool_less_exclusions.txt	LTP254	ltpFR	4	4	-1	CHIME	300	n/a	-1	1	1.0	1.0	upper	../fonts/Verdana.ttf
923.186	n/a	WORD	461593	wordpools/wasnorm_wordpool_less_exclusions.txt	LTP254	ltpFR	4	4	-1	NICOTINE	951	n/a	-1	1	1.0	1.0	upper	../fonts/Verdana.ttf
927.046	n/a	WORD	463523	wordpools/wasnorm_wordpool_less_exclusions.txt	LTP254	ltpFR	4	4	-1	SANDPAPER	1231	n/a	-1	1	1.0	1.0	upper	../fonts/Verdana.ttf
931.174	n/a	WORD	465587	wordpools/wasnorm_wordpool_less_exclusions.txt	LTP254	ltpFR	4	4	-1	FOREST	593	n/a	-1	1	1.0	1.0	upper	../fonts/Verdana.ttf
935.202	n/a	WORD	467601	wordpools/wasnorm_wordpool_less_exclusions.txt	LTP254	ltpFR	4	4	-1	ASH	44	n/a	-1	1	1.0	1.0	upper	../fonts/Verdana.ttf
939.38	n/a	WORD	469690	wordpools/wasnorm_wordpool_less_exclusions.txt	LTP254	ltpFR	4	4	-1	CREAM	402	n/a	-1	1	1.0	1.0	upper	../fonts/Verdana.ttf
943.274	n/a	WORD	471637	wordpools/wasnorm_wordpool_less_exclusions.txt	LTP254	ltpFR	4	4	-1	RUNNER	1218	n/a	-1	1	1.0	1.0	upper	../fonts/Verdana.ttf
947.134	n/a	WORD	473567	wordpools/wasnorm_wordpool_less_exclusions.txt	LTP254	ltpFR	4	4	-1	NEWSSTAND	949	n/a	-1	1	1.0	1.0	upper	../fonts/Verdana.ttf
951.312	n/a	WORD	475656	wordpools/wasnorm_wordpool_less_exclusions.txt	LTP254	ltpFR	4	4	-1	IGLOO	734	n/a	-1	1	1.0	1.0	upper	../fonts/Verdana.ttf
955.488	n/a	WORD	477744	wordpools/wasnorm_wordpool_less_exclusions.txt	LTP254	ltpFR	4	4	-1	COIN	343	n/a	-1	1	1.0	1.0	upper	../fonts/Verdana.ttf
959.366	n/a	WORD	479683	wordpools/wasnorm_wordpool_less_exclusions.txt	LTP254	ltpFR	4	4	-1	OWNER	993	n/a	-1	1	1.0	1.0	upper	../fonts/Verdana.ttf
965.192	n/a	REC_START	482596	n/a	LTP254	ltpFR	4	4	n/a	n/a	n/a	n/a	n/a	n/a	n/a	n/a	n/a	n/a
966.05	n/a	REC_WORD	483025	wordpools/wasnorm_wordpool_less_exclusions.txt	LTP254	ltpFR	4	4	-1	OWNER	993	n/a	-1	n/a	n/a	n/a	n/a	n/a
967.02	n/a	REC_WORD	483510	wordpools/wasnorm_wordpool_less_exclusions.txt	LTP254	ltpFR	4	4	-1	IGLOO	734	n/a	-1	n/a	n/a	n/a	n/a	n/a
968.094	n/a	REC_WORD	484047	wordpools/wasnorm_wordpool_less_exclusions.txt	LTP254	ltpFR	4	4	-1	CREAM	402	n/a	-1	n/a	n/a	n/a	n/a	n/a
969.556	n/a	REC_WORD	484778	wordpools/wasnorm_wordpool_less_exclusions.txt	LTP254	ltpFR	4	4	-1	COIN	343	n/a	-1	n/a	n/a	n/a	n/a	n/a
970.916	n/a	REC_WORD	485458	wordpools/wasnorm_wordpool_less_exclusions.txt	LTP254	ltpFR	4	4	-1	ASH	44	n/a	-1	n/a	n/a	n/a	n/a	n/a
972.86	n/a	REC_WORD	486430	wordpools/wasnorm_wordpool_less_exclusions.txt	LTP254	ltpFR	4	4	-1	OTTER	986	n/a	-1	n/a	n/a	n/a	n/a	n/a
974.08	n/a	REC_WORD	487040	wordpools/wasnorm_wordpool_less_exclusions.txt	LTP254	ltpFR	4	4	-1	WHISKERS	1605	n/a	-1	n/a	n/a	n/a	n/a	n/a
975.64	n/a	REC_WORD	487820	wordpools/wasnorm_wordpool_less_exclusions.txt	LTP254	ltpFR	4	4	-1	ROOM	1206	n/a	-1	n/a	n/a	n/a	n/a	n/a
976.812	n/a	REC_WORD	488406	wordpools/wasnorm_wordpool_less_exclusions.txt	LTP254	ltpFR	4	4	-1	SUITE	1404	n/a	-1	n/a	n/a	n/a	n/a	n/a
978.472	n/a	REC_WORD	489236	wordpools/wasnorm_wordpool_less_exclusions.txt	LTP254	ltpFR	4	4	-1	NEWSSTAND	949	n/a	-1	n/a	n/a	n/a	n/a	n/a
981.04	n/a	REC_WORD	490520	wordpools/wasnorm_wordpool_less_exclusions.txt	LTP254	ltpFR	4	4	-1	BAY	102	n/a	-1	n/a	n/a	n/a	n/a	n/a
1062.064	n/a	WORD	531032	wordpools/wasnorm_wordpool_less_exclusions.txt	LTP254	ltpFR	4	5	-1	MATCH	878	n/a	-1	1	1.0	1.0	upper	../fonts/Verdana.ttf
1066.258	n/a	WORD	533129	wordpools/wasnorm_wordpool_less_exclusions.txt	LTP254	ltpFR	4	5	-1	JET	756	n/a	-1	1	1.0	1.0	upper	../fonts/Verdana.ttf
1070.286	n/a	WORD	535143	wordpools/wasnorm_wordpool_less_exclusions.txt	LTP254	ltpFR	4	5	-1	ALBUM	14	n/a	-1	1	1.0	1.0	upper	../fonts/Verdana.ttf
1074.33	n/a	WORD	537165	wordpools/wasnorm_wordpool_less_exclusions.txt	LTP254	ltpFR	4	5	-1	CAB	209	n/a	-1	1	1.0	1.0	upper	../fonts/Verdana.ttf
1078.308	n/a	WORD	539154	wordpools/wasnorm_wordpool_less_exclusions.txt	LTP254	ltpFR	4	5	-1	MOTOR	922	n/a	-1	1	1.0	1.0	upper	../fonts/Verdana.ttf
1082.268	n/a	WORD	541134	wordpools/wasnorm_wordpool_less_exclusions.txt	LTP254	ltpFR	4	5	-1	CAFE	216	n/a	-1	1	1.0	1.0	upper	../fonts/Verdana.ttf
1086.146	n/a	WORD	543073	wordpools/wasnorm_wordpool_less_exclusions.txt	LTP254	ltpFR	4	5	-1	CONTAINER	366	n/a	-1	1	1.0	1.0	upper	../fonts/Verdana.ttf
1090.09	n/a	WORD	545045	wordpools/wasnorm_wordpool_less_exclusions.txt	LTP254	ltpFR	4	5	-1	OPERATOR	979	n/a	-1	1	1.0	1.0	upper	../fonts/Verdana.ttf
1094.1	n/a	WORD	547050	wordpools/wasnorm_wordpool_less_exclusions.txt	LTP254	ltpFR	4	5	-1	GLUE	643	n/a	-1	1	1.0	1.0	upper	../fonts/Verdana.ttf
1098.01	n/a	WORD	549005	wordpools/wasnorm_wordpool_less_exclusions.txt	LTP254	ltpFR	4	5	-1	BISCUIT	130	n/a	-1	1	1.0	1.0	upper	../fonts/Verdana.ttf
1102.022	n/a	WORD	551011	wordpools/wasnorm_wordpool_less_exclusions.txt	LTP254	ltpFR	4	5	-1	SEED	1266	n/a	-1	1	1.0	1.0	upper	../fonts/Verdana.ttf
1106.216	n/a	WORD	553108	wordpools/wasnorm_wordpool_less_exclusions.txt	LTP254	ltpFR	4	5	-1	ASHTRAY	45	n/a	-1	1	1.0	1.0	upper	../fonts/Verdana.ttf
1110.21	n/a	WORD	555105	wordpools/wasnorm_wordpool_less_exclusions.txt	LTP254	ltpFR	4	5	-1	PAINTING	1005	n/a	-1	1	1.0	1.0	upper	../fonts/Verdana.ttf
1114.12	n/a	WORD	557060	wordpools/wasnorm_wordpool_less_exclusions.txt	LTP254	ltpFR	4	5	-1	BUTTER	205	n/a	-1	1	1.0	1.0	upper	../fonts/Verdana.ttf
1118.314	n/a	WORD	559157	wordpools/wasnorm_wordpool_less_exclusions.txt	LTP254	ltpFR	4	5	-1	KITCHEN	778	n/a	-1	1	1.0	1.0	upper	../fonts/Verdana.ttf
1122.308	n/a	WORD	561154	wordpools/wasnorm_wordpool_less_exclusions.txt	LTP254	ltpFR	4	5	-1	ROOF	1205	n/a	-1	1	1.0	1.0	upper	../fonts/Verdana.ttf
1128.234	n/a	REC_START	564117	n/a	LTP254	ltpFR	4	5	n/a	n/a	n/a	n/a	n/a	n/a	n/a	n/a	n/a	n/a
1129.14	n/a	REC_WORD	564570	wordpools/wasnorm_wordpool_less_exclusions.txt	LTP254	ltpFR	4	5	-1	ROOF	1205	n/a	-1	n/a	n/a	n/a	n/a	n/a
1129.96	n/a	REC_WORD	564980	wordpools/wasnorm_wordpool_less_exclusions.txt	LTP254	ltpFR	4	5	-1	KITCHEN	778	n/a	-1	n/a	n/a	n/a	n/a	n/a
1130.97	n/a	REC_WORD	565485	wordpools/wasnorm_wordpool_less_exclusions.txt	LTP254	ltpFR	4	5	-1	ASHTRAY	45	n/a	-1	n/a	n/a	n/a	n/a	n/a
1132.608	n/a	REC_WORD	566304	wordpools/wasnorm_wordpool_less_exclusions.txt	LTP254	ltpFR	4	5	-1	BUTTER	205	n/a	-1	n/a	n/a	n/a	n/a	n/a
1133.742	n/a	REC_WORD	566871	wordpools/wasnorm_wordpool_less_exclusions.txt	LTP254	ltpFR	4	5	-1	CAB	209	n/a	-1	n/a	n/a	n/a	n/a	n/a
1137.344	n/a	REC_WORD	568672	wordpools/wasnorm_wordpool_less_exclusions.txt	LTP254	ltpFR	4	5	-1	ALBUM	14	n/a	-1	n/a	n/a	n/a	n/a	n/a
1140.602	n/a	REC_WORD	570301	wordpools/wasnorm_wordpool_less_exclusions.txt	LTP254	ltpFR	4	5	-1	MATCH	878	n/a	-1	n/a	n/a	n/a	n/a	n/a
1142.212	n/a	REC_WORD	571106	wordpools/wasnorm_wordpool_less_exclusions.txt	LTP254	ltpFR	4	5	-1	JET	756	n/a	-1	n/a	n/a	n/a	n/a	n/a
1144.616	n/a	REC_WORD	572308	wordpools/wasnorm_wordpool_less_exclusions.txt	LTP254	ltpFR	4	5	-1	MOTOR	922	n/a	-1	n/a	n/a	n/a	n/a	n/a
1151.1	n/a	REC_WORD	575550	wordpools/wasnorm_wordpool_less_exclusions.txt	LTP254	ltpFR	4	5	-1	SEED	1266	n/a	-1	n/a	n/a	n/a	n/a	n/a
1199.344	n/a	REC_WORD	599672	wordpools/wasnorm_wordpool_less_exclusions.txt	LTP254	ltpFR	4	5	-1	BISCUIT	130	n/a	-1	n/a	n/a	n/a	n/a	n/a
1236.506	n/a	WORD	618253	wordpools/wasnorm_wordpool_less_exclusions.txt	LTP254	ltpFR	4	6	-1	KIWI	781	n/a	-1	1	1.0	1.0	upper	../fonts/Verdana.ttf
1240.45	n/a	WORD	620225	wordpools/wasnorm_wordpool_less_exclusions.txt	LTP254	ltpFR	4	6	-1	MOUTH	926	n/a	-1	1	1.0	1.0	upper	../fonts/Verdana.ttf
1244.278	n/a	WORD	622139	wordpools/wasnorm_wordpool_less_exclusions.txt	LTP254	ltpFR	4	6	-1	APRON	35	n/a	-1	1	1.0	1.0	upper	../fonts/Verdana.ttf
1248.356	n/a	WORD	624178	wordpools/wasnorm_wordpool_less_exclusions.txt	LTP254	ltpFR	4	6	-1	CREEK	404	n/a	-1	1	1.0	1.0	upper	../fonts/Verdana.ttf
1252.55	n/a	WORD	626275	wordpools/wasnorm_wordpool_less_exclusions.txt	LTP254	ltpFR	4	6	-1	PLIERS	1089	n/a	-1	1	1.0	1.0	upper	../fonts/Verdana.ttf
1256.576	n/a	WORD	628288	wordpools/wasnorm_wordpool_less_exclusions.txt	LTP254	ltpFR	4	6	-1	WRENCH	1625	n/a	-1	1	1.0	1.0	upper	../fonts/Verdana.ttf
1260.52	n/a	WORD	630260	wordpools/wasnorm_wordpool_less_exclusions.txt	LTP254	ltpFR	4	6	-1	CANAL	226	n/a	-1	1	1.0	1.0	upper	../fonts/Verdana.ttf
1264.548	n/a	WORD	632274	wordpools/wasnorm_wordpool_less_exclusions.txt	LTP254	ltpFR	4	6	-1	RING	1193	n/a	-1	1	1.0	1.0	upper	../fonts/Verdana.ttf
1268.726	n/a	WORD	634363	wordpools/wasnorm_wordpool_less_exclusions.txt	LTP254	ltpFR	4	6	-1	GRAVEL	659	n/a	-1	1	1.0	1.0	upper	../fonts/Verdana.ttf
1272.754	n/a	WORD	636377	wordpools/wasnorm_wordpool_less_exclusions.txt	LTP254	ltpFR	4	6	-1	PLASTER	1085	n/a	-1	1	1.0	1.0	upper	../fonts/Verdana.ttf
1276.664	n/a	WORD	638332	wordpools/wasnorm_wordpool_less_exclusions.txt	LTP254	ltpFR	4	6	-1	COMMANDER	354	n/a	-1	1	1.0	1.0	upper	../fonts/Verdana.ttf
1280.576	n/a	WORD	640288	wordpools/wasnorm_wordpool_less_exclusions.txt	LTP254	ltpFR	4	6	-1	LIEUTENANT	818	n/a	-1	1	1.0	1.0	upper	../fonts/Verdana.ttf
1284.736	n/a	WORD	642368	wordpools/wasnorm_wordpool_less_exclusions.txt	LTP254	ltpFR	4	6	-1	BERRY	122	n/a	-1	1	1.0	1.0	upper	../fonts/Verdana.ttf
1288.78	n/a	WORD	644390	wordpools/wasnorm_wordpool_less_exclusions.txt	LTP254	ltpFR	4	6	-1	SHOWER	1296	n/a	-1	1	1.0	1.0	upper	../fonts/Verdana.ttf
1292.658	n/a	WORD	646329	wordpools/wasnorm_wordpool_less_exclusions.txt	LTP254	ltpFR	4	6	-1	REEF	1177	n/a	-1	1	1.0	1.0	upper	../fonts/Verdana.ttf
1296.618	n/a	WORD	648309	wordpools/wasnorm_wordpool_less_exclusions.txt	LTP254	ltpFR	4	6	-1	CUSTARD	429	n/a	-1	1	1.0	1.0	upper	../fonts/Verdana.ttf
1302.344	n/a	REC_START	651172	n/a	LTP254	ltpFR	4	6	n/a	n/a	n/a	n/a	n/a	n/a	n/a	n/a	n/a	n/a
1303.396	n/a	REC_WORD	651698	wordpools/wasnorm_wordpool_less_exclusions.txt	LTP254	ltpFR	4	6	-1	BERRY	122	n/a	-1	n/a	n/a	n/a	n/a	n/a
1304.308	n/a	REC_WORD	652154	wordpools/wasnorm_wordpool_less_exclusions.txt	LTP254	ltpFR	4	6	-1	KIWI	781	n/a	-1	n/a	n/a	n/a	n/a	n/a
1305.478	n/a	REC_WORD	652739	wordpools/wasnorm_wordpool_less_exclusions.txt	LTP254	ltpFR	4	6	-1	CUSTARD	429	n/a	-1	n/a	n/a	n/a	n/a	n/a
1306.78	n/a	REC_WORD	653390	wordpools/wasnorm_wordpool_less_exclusions.txt	LTP254	ltpFR	4	6	-1	MOUTH	926	n/a	-1	n/a	n/a	n/a	n/a	n/a
1307.906	n/a	REC_WORD	653953	wordpools/wasnorm_wordpool_less_exclusions.txt	LTP254	ltpFR	4	6	-1	APRON	35	n/a	-1	n/a	n/a	n/a	n/a	n/a
1308.918	n/a	REC_WORD	654459	wordpools/wasnorm_wordpool_less_exclusions.txt	LTP254	ltpFR	4	6	-1	COMMANDER	354	n/a	-1	n/a	n/a	n/a	n/a	n/a
1309.85	n/a	REC_WORD	654925	wordpools/wasnorm_wordpool_less_exclusions.txt	LTP254	ltpFR	4	6	-1	LIEUTENANT	818	n/a	-1	n/a	n/a	n/a	n/a	n/a
1311.31	n/a	REC_WORD	655655	wordpools/wasnorm_wordpool_less_exclusions.txt	LTP254	ltpFR	4	6	-1	CANAL	226	n/a	-1	n/a	n/a	n/a	n/a	n/a
1312.474	n/a	REC_WORD	656237	wordpools/wasnorm_wordpool_less_exclusions.txt	LTP254	ltpFR	4	6	-1	CREEK	404	n/a	-1	n/a	n/a	n/a	n/a	n/a
1313.656	n/a	REC_WORD	656828	wordpools/wasnorm_wordpool_less_exclusions.txt	LTP254	ltpFR	4	6	-1	REEF	1177	n/a	-1	n/a	n/a	n/a	n/a	n/a
1315.004	n/a	REC_WORD	657502	wordpools/wasnorm_wordpool_less_exclusions.txt	LTP254	ltpFR	4	6	-1	PLIERS	1089	n/a	-1	n/a	n/a	n/a	n/a	n/a
1316.46	n/a	REC_WORD	658230	wordpools/wasnorm_wordpool_less_exclusions.txt	LTP254	ltpFR	4	6	-1	WRENCH	1625	n/a	-1	n/a	n/a	n/a	n/a	n/a
1321.296	n/a	REC_WORD	660648	wordpools/wasnorm_wordpool_less_exclusions.txt	LTP254	ltpFR	4	6	-1	PLASTER	1085	n/a	-1	n/a	n/a	n/a	n/a	n/a
1323.8	n/a	REC_WORD	661900	wordpools/wasnorm_wordpool_less_exclusions.txt	LTP254	ltpFR	4	6	-1	GRAVEL	659	n/a	-1	n/a	n/a	n/a	n/a	n/a
1326.696	n/a	REC_WORD	663348	wordpools/wasnorm_wordpool_less_exclusions.txt	LTP254	ltpFR	4	6	-1	RING	1193	n/a	-1	n/a	n/a	n/a	n/a	n/a
1406.506	n/a	WORD	703253	wordpools/wasnorm_wordpool_less_exclusions.txt	LTP254	ltpFR	4	7	0	TRASH	1497	n/a	1	1	0.412841796875	0.57763671875	upper	../fonts/zerothre.ttf
1410.616	n/a	WORD	705308	wordpools/wasnorm_wordpool_less_exclusions.txt	LTP254	ltpFR	4	7	0	ALMOND	18	n/a	0	1	0.412841796875	0.57763671875	upper	../fonts/zerothre.ttf
1414.676	n/a	WORD	707338	wordpools/wasnorm_wordpool_less_exclusions.txt	LTP254	ltpFR	4	7	0	JUPITER	765	n/a	1	1	0.412841796875	0.57763671875	upper	../fonts/zerothre.ttf
1418.688	n/a	WORD	709344	wordpools/wasnorm_wordpool_less_exclusions.txt	LTP254	ltpFR	4	7	0	PLANET	1082	n/a	1	1	0.412841796875	0.57763671875	upper	../fonts/zerothre.ttf
1422.664	n/a	WORD	711332	wordpools/wasnorm_wordpool_less_exclusions.txt	LTP254	ltpFR	4	7	0	SAUSAGE	1238	n/a	0	1	0.412841796875	0.57763671875	upper	../fonts/zerothre.ttf
1426.592	n/a	WORD	713296	wordpools/wasnorm_wordpool_less_exclusions.txt	LTP254	ltpFR	4	7	0	LIP	828	n/a	0	1	0.412841796875	0.57763671875	upper	../fonts/zerothre.ttf
1430.686	n/a	WORD	715343	wordpools/wasnorm_wordpool_less_exclusions.txt	LTP254	ltpFR	4	7	0	SLOPE	1328	n/a	1	1	0.412841796875	0.57763671875	upper	../fonts/zerothre.ttf
1434.598	n/a	WORD	717299	wordpools/wasnorm_wordpool_less_exclusions.txt	LTP254	ltpFR	4	7	0	CUSHION	428	n/a	1	1	0.412841796875	0.57763671875	upper	../fonts/zerothre.ttf
1438.524	n/a	WORD	719262	wordpools/wasnorm_wordpool_less_exclusions.txt	LTP254	ltpFR	4	7	0	CRUMB	416	n/a	0	1	0.412841796875	0.57763671875	upper	../fonts/zerothre.ttf
1442.436	n/a	WORD	721218	wordpools/wasnorm_wordpool_less_exclusions.txt	LTP254	ltpFR	4	7	0	APPLE	33	n/a	0	1	0.412841796875	0.57763671875	upper	../fonts/zerothre.ttf
1446.38	n/a	WORD	723190	wordpools/wasnorm_wordpool_less_exclusions.txt	LTP254	ltpFR	4	7	0	ISLAND	745	n/a	1	1	0.412841796875	0.57763671875	upper	../fonts/zerothre.ttf
1450.556	n/a	WORD	725278	wordpools/wasnorm_wordpool_less_exclusions.txt	LTP254	ltpFR	4	7	0	POOL	1103	n/a	1	1	0.412841796875	0.57763671875	upper	../fonts/zerothre.ttf
1454.618	n/a	WORD	727309	wordpools/wasnorm_wordpool_less_exclusions.txt	LTP254	ltpFR	4	7	0	GARBAGE	622	n/a	1	1	0.412841796875	0.57763671875	upper	../fonts/zerothre.ttf
1458.81	n/a	WORD	729405	wordpools/wasnorm_wordpool_less_exclusions.txt	LTP254	ltpFR	4	7	0	FEAST	556	n/a	1	1	0.412841796875	0.57763671875	upper	../fonts/zerothre.ttf
1462.672	n/a	WORD	731336	wordpools/wasnorm_wordpool_less_exclusions.txt	LTP254	ltpFR	4	7	0	DRILL	497	n/a	0	1	0.412841796875	0.57763671875	upper	../fonts/zerothre.ttf
1466.882	n/a	WORD	733441	wordpools/wasnorm_wordpool_less_exclusions.txt	LTP254	ltpFR	4	7	0	PALACE	1006	n/a	1	1	0.412841796875	0.57763671875	upper	../fonts/zerothre.ttf
1472.974	n/a	REC_START	736487	n/a	LTP254	ltpFR	4	7	n/a	n/a	n/a	n/a	n/a	n/a	n/a	n/a	n/a	n/a
1475.062	n/a	REC_WORD	737531	wordpools/wasnorm_wordpool_less_exclusions.txt	LTP254	ltpFR	4	7	0	GARBAGE	622	n/a	1	n/a	n/a	n/a	n/a	n/a
1476.166	n/a	REC_WORD	738083	wordpools/wasnorm_wordpool_less_exclusions.txt	LTP254	ltpFR	4	7	0	PALACE	1006	n/a	1	n/a	n/a	n/a	n/a	n/a
1479.374	n/a	REC_WORD	739687	wordpools/wasnorm_wordpool_less_exclusions.txt	LTP254	ltpFR	4	7	n/a	WALNUT	1584	n/a	n/a	n/a	n/a	n/a	n/a	n/a
1481.116	n/a	REC_WORD	740558	wordpools/wasnorm_wordpool_less_exclusions.txt	LTP254	ltpFR	4	7	0	JUPITER	765	n/a	1	n/a	n/a	n/a	n/a	n/a
1482.65	n/a	REC_WORD	741325	wordpools/wasnorm_wordpool_less_exclusions.txt	LTP254	ltpFR	4	7	0	PLANET	1082	n/a	1	n/a	n/a	n/a	n/a	n/a
1483.892	n/a	REC_WORD	741946	wordpools/wasnorm_wordpool_less_exclusions.txt	LTP254	ltpFR	4	7	0	ISLAND	745	n/a	1	n/a	n/a	n/a	n/a	n/a
1490.77	n/a	REC_WORD	745385	wordpools/wasnorm_wordpool_less_exclusions.txt	LTP254	ltpFR	4	7	0	CRUMB	416	n/a	0	n/a	n/a	n/a	n/a	n/a
1501.786	n/a	REC_WORD	750893	wordpools/wasnorm_wordpool_less_exclusions.txt	LTP254	ltpFR	4	7	n/a	TRASHCAN	-1	n/a	n/a	n/a	n/a	n/a	n/a	n/a
1576.036	n/a	WORD	788018	wordpools/wasnorm_wordpool_less_exclusions.txt	LTP254	ltpFR	4	8	1	SAILOR	1223	n/a	1	0	0.5869140625	0.422607421875	lower	../fonts/amplitud.ttf
1579.898	n/a	WORD	789949	wordpools/wasnorm_wordpool_less_exclusions.txt	LTP254	ltpFR	4	8	1	GUITAR	670	n/a	0	0	0.5869140625	0.422607421875	lower	../fonts/amplitud.ttf
1584.042	n/a	WORD	792021	wordpools/wasnorm_wordpool_less_exclusions.txt	LTP254	ltpFR	4	8	1	FLEET	578	n/a	1	0	0.5869140625	0.422607421875	lower	../fonts/amplitud.ttf
1588.104	n/a	WORD	794052	wordpools/wasnorm_wordpool_less_exclusions.txt	LTP254	ltpFR	4	8	1	RAFT	1159	n/a	0	0	0.5869140625	0.422607421875	lower	../fonts/amplitud.ttf
1591.93	n/a	WORD	795965	wordpools/wasnorm_wordpool_less_exclusions.txt	LTP254	ltpFR	4	8	0	BARRACUDA	90	n/a	1	1	0.412841796875	0.57763671875	upper	../fonts/zerothre.ttf
1596.142	n/a	WORD	798071	wordpools/wasnorm_wordpool_less_exclusions.txt	LTP254	ltpFR	4	8	0	WARRIOR	1589	n/a	1	1	0.412841796875	0.57763671875	upper	../fonts/zerothre.ttf
1600.102	n/a	WORD	800051	wordpools/wasnorm_wordpool_less_exclusions.txt	LTP254	ltpFR	4	8	0	FIDDLE	561	n/a	0	1	0.412841796875	0.57763671875	upper	../fonts/zerothre.ttf
1603.98	n/a	WORD	801990	wordpools/wasnorm_wordpool_less_exclusions.txt	LTP254	ltpFR	4	8	0	RAILROAD	1162	n/a	1	1	0.412841796875	0.57763671875	upper	../fonts/zerothre.ttf
1607.824	n/a	WORD	803912	wordpools/wasnorm_wordpool_less_exclusions.txt	LTP254	ltpFR	4	8	0	DOVE	491	n/a	0	1	0.412841796875	0.57763671875	upper	../fonts/zerothre.ttf
1612.0	n/a	WORD	806000	wordpools/wasnorm_wordpool_less_exclusions.txt	LTP254	ltpFR	4	8	1	JUNGLE	764	n/a	1	0	0.5869140625	0.422607421875	lower	../fonts/amplitud.ttf
1616.162	n/a	WORD	808081	wordpools/wasnorm_wordpool_less_exclusions.txt	LTP254	ltpFR	4	8	1	LEOPARD	812	n/a	1	0	0.5869140625	0.422607421875	lower	../fonts/amplitud.ttf
1620.006	n/a	WORD	810003	wordpools/wasnorm_wordpool_less_exclusions.txt	LTP254	ltpFR	4	8	1	BOYFRIEND	162	n/a	1	0	0.5869140625	0.422607421875	lower	../fonts/amplitud.ttf
1623.85	n/a	WORD	811925	wordpools/wasnorm_wordpool_less_exclusions.txt	LTP254	ltpFR	4	8	1	BUG	187	n/a	1	0	0.5869140625	0.422607421875	lower	../fonts/amplitud.ttf
1627.678	n/a	WORD	813839	wordpools/wasnorm_wordpool_less_exclusions.txt	LTP254	ltpFR	4	8	0	MOSQUITO	917	n/a	0	1	0.412841796875	0.57763671875	upper	../fonts/zerothre.ttf
1631.756	n/a	WORD	815878	wordpools/wasnorm_wordpool_less_exclusions.txt	LTP254	ltpFR	4	8	0	FLASHLIGHT	575	n/a	0	1	0.412841796875	0.57763671875	upper	../fonts/zerothre.ttf
1635.682	n/a	WORD	817841	wordpools/wasnorm_wordpool_less_exclusions.txt	LTP254	ltpFR	4	8	0	SWITCH	1422	n/a	0	1	0.412841796875	0.57763671875	upper	../fonts/zerothre.ttf
1641.708	n/a	REC_START	820854	n/a	LTP254	ltpFR	4	8	n/a	n/a	n/a	n/a	n/a	n/a	n/a	n/a	n/a	n/a
1642.986	n/a	REC_WORD	821493	wordpools/wasnorm_wordpool_less_exclusions.txt	LTP254	ltpFR	4	8	0	FLASHLIGHT	575	n/a	0	n/a	n/a	n/a	n/a	n/a
1643.982	n/a	REC_WORD	821991	wordpools/wasnorm_wordpool_less_exclusions.txt	LTP254	ltpFR	4	8	0	SWITCH	1422	n/a	0	n/a	n/a	n/a	n/a	n/a
1644.892	n/a	REC_WORD	822446	wordpools/wasnorm_wordpool_less_exclusions.txt	LTP254	ltpFR	4	8	0	MOSQUITO	917	n/a	0	n/a	n/a	n/a	n/a	n/a
1646.416	n/a	REC_WORD	823208	wordpools/wasnorm_wordpool_less_exclusions.txt	LTP254	ltpFR	4	8	1	BUG	187	n/a	1	n/a	n/a	n/a	n/a	n/a
1647.76	n/a	REC_WORD	823880	wordpools/wasnorm_wordpool_less_exclusions.txt	LTP254	ltpFR	4	8	0	WARRIOR	1589	n/a	1	n/a	n/a	n/a	n/a	n/a
1648.814	n/a	REC_WORD	824407	wordpools/wasnorm_wordpool_less_exclusions.txt	LTP254	ltpFR	4	8	1	SAILOR	1223	n/a	1	n/a	n/a	n/a	n/a	n/a
1650.234	n/a	REC_WORD	825117	wordpools/wasnorm_wordpool_less_exclusions.txt	LTP254	ltpFR	4	8	1	FLEET	578	n/a	1	n/a	n/a	n/a	n/a	n/a
1651.534	n/a	REC_WORD	825767	wordpools/wasnorm_wordpool_less_exclusions.txt	LTP254	ltpFR	4	8	1	RAFT	1159	n/a	0	n/a	n/a	n/a	n/a	n/a
1654.236	n/a	REC_WORD	827118	wordpools/wasnorm_wordpool_less_exclusions.txt	LTP254	ltpFR	4	8	0	RAILROAD	1162	n/a	1	n/a	n/a	n/a	n/a	n/a
1655.882	n/a	REC_WORD	827941	wordpools/wasnorm_wordpool_less_exclusions.txt	LTP254	ltpFR	4	8	1	GUITAR	670	n/a	0	n/a	n/a	n/a	n/a	n/a
1661.844	n/a	REC_WORD	830922	wordpools/wasnorm_wordpool_less_exclusions.txt	LTP254	ltpFR	4	8	0	FIDDLE	561	n/a	0	n/a	n/a	n/a	n/a	n/a
1670.348	n/a	REC_WORD	835174	wordpools/wasnorm_wordpool_less_exclusions.txt	LTP254	ltpFR	4	8	1	BOYFRIEND	162	n/a	1	n/a	n/a	n/a	n/a	n/a
1749.664	n/a	WORD	874832	wordpools/wasnorm_wordpool_less_exclusions.txt	LTP254	ltpFR	4	9	0	FACTORY	548	n/a	1	1	0.412841796875	0.57763671875	upper	../fonts/zerothre.ttf
1753.758	n/a	WORD	876879	wordpools/wasnorm_wordpool_less_exclusions.txt	LTP254	ltpFR	4	9	0	GRASSHOPPER	656	n/a	0	1	0.412841796875	0.57763671875	upper	../fonts/zerothre.ttf
1757.87	n/a	WORD	878935	wordpools/wasnorm_wordpool_less_exclusions.txt	LTP254	ltpFR	4	9	0	MERMAID	887	n/a	1	1	0.412841796875	0.57763671875	upper	../fonts/zerothre.ttf
1762.08	n/a	WORD	881040	wordpools/wasnorm_wordpool_less_exclusions.txt	LTP254	ltpFR	4	9	1	PORPOISE	1109	n/a	1	0	0.5869140625	0.422607421875	lower	../fonts/amplitud.ttf
1766.056	n/a	WORD	883028	wordpools/wasnorm_wordpool_less_exclusions.txt	LTP254	ltpFR	4	9	1	AUDIENCE	59	n/a	1	0	0.5869140625	0.422607421875	lower	../fonts/amplitud.ttf
1770.1	n/a	WORD	885050	wordpools/wasnorm_wordpool_less_exclusions.txt	LTP254	ltpFR	4	9	0	LIVER	833	n/a	0	1	0.412841796875	0.57763671875	upper	../fonts/zerothre.ttf
1773.944	n/a	WORD	886972	wordpools/wasnorm_wordpool_less_exclusions.txt	LTP254	ltpFR	4	9	0	FLESH	579	n/a	1	1	0.412841796875	0.57763671875	upper	../fonts/zerothre.ttf
1778.072	n/a	WORD	889036	wordpools/wasnorm_wordpool_less_exclusions.txt	LTP254	ltpFR	4	9	0	POT	1114	n/a	0	1	0.412841796875	0.57763671875	upper	../fonts/zerothre.ttf
1781.966	n/a	WORD	890983	wordpools/wasnorm_wordpool_less_exclusions.txt	LTP254	ltpFR	4	9	0	TACK	1428	n/a	0	1	0.412841796875	0.57763671875	upper	../fonts/zerothre.ttf
1785.844	n/a	WORD	892922	wordpools/wasnorm_wordpool_less_exclusions.txt	LTP254	ltpFR	4	9	0	CATERPILLAR	259	n/a	0	1	0.412841796875	0.57763671875	upper	../fonts/zerothre.ttf
1789.872	n/a	WORD	894936	wordpools/wasnorm_wordpool_less_exclusions.txt	LTP254	ltpFR	4	9	1	BAKER	71	n/a	1	0	0.5869140625	0.422607421875	lower	../fonts/amplitud.ttf
1793.748	n/a	WORD	896874	wordpools/wasnorm_wordpool_less_exclusions.txt	LTP254	ltpFR	4	9	1	DICTIONARY	463	n/a	0	0	0.5869140625	0.422607421875	lower	../fonts/amplitud.ttf
1797.694	n/a	WORD	898847	wordpools/wasnorm_wordpool_less_exclusions.txt	LTP254	ltpFR	4	9	1	GROCERIES	663	n/a	0	0	0.5869140625	0.422607421875	lower	../fonts/amplitud.ttf
1801.67	n/a	WORD	900835	wordpools/wasnorm_wordpool_less_exclusions.txt	LTP254	ltpFR	4	9	1	LUNCH	849	n/a	0	0	0.5869140625	0.422607421875	lower	../fonts/amplitud.ttf
1805.648	n/a	WORD	902824	wordpools/wasnorm_wordpool_less_exclusions.txt	LTP254	ltpFR	4	9	1	GOO	648	n/a	0	0	0.5869140625	0.422607421875	lower	../fonts/amplitud.ttf
1809.776	n/a	WORD	904888	wordpools/wasnorm_wordpool_less_exclusions.txt	LTP254	ltpFR	4	9	1	STAFF	1365	n/a	1	0	0.5869140625	0.422607421875	lower	../fonts/amplitud.ttf
1815.768	n/a	REC_START	907884	n/a	LTP254	ltpFR	4	9	n/a	n/a	n/a	n/a	n/a	n/a	n/a	n/a	n/a	n/a
1816.818	n/a	REC_WORD	908409	wordpools/wasnorm_wordpool_less_exclusions.txt	LTP254	ltpFR	4	9	1	STAFF	1365	n/a	1	n/a	n/a	n/a	n/a	n/a
1818.224	n/a	REC_WORD	909112	wordpools/wasnorm_wordpool_less_exclusions.txt	LTP254	ltpFR	4	9	1	GOO	648	n/a	0	n/a	n/a	n/a	n/a	n/a
1819.354	n/a	REC_WORD	909677	wordpools/wasnorm_wordpool_less_exclusions.txt	LTP254	ltpFR	4	9	1	GROCERIES	663	n/a	0	n/a	n/a	n/a	n/a	n/a
1820.712	n/a	REC_WORD	910356	wordpools/wasnorm_wordpool_less_exclusions.txt	LTP254	ltpFR	4	9	1	LUNCH	849	n/a	0	n/a	n/a	n/a	n/a	n/a
1822.338	n/a	REC_WORD	911169	wordpools/wasnorm_wordpool_less_exclusions.txt	LTP254	ltpFR	4	9	1	BAKER	71	n/a	1	n/a	n/a	n/a	n/a	n/a
1823.532	n/a	REC_WORD	911766	wordpools/wasnorm_wordpool_less_exclusions.txt	LTP254	ltpFR	4	9	0	POT	1114	n/a	0	n/a	n/a	n/a	n/a	n/a
1825.212	n/a	REC_WORD	912606	wordpools/wasnorm_wordpool_less_exclusions.txt	LTP254	ltpFR	4	9	0	TACK	1428	n/a	0	n/a	n/a	n/a	n/a	n/a
1826.62	n/a	REC_WORD	913310	wordpools/wasnorm_wordpool_less_exclusions.txt	LTP254	ltpFR	4	9	0	MERMAID	887	n/a	1	n/a	n/a	n/a	n/a	n/a
1828.03	n/a	REC_WORD	914015	wordpools/wasnorm_wordpool_less_exclusions.txt	LTP254	ltpFR	4	9	1	AUDIENCE	59	n/a	1	n/a	n/a	n/a	n/a	n/a
1829.676	n/a	REC_WORD	914838	wordpools/wasnorm_wordpool_less_exclusions.txt	LTP254	ltpFR	4	9	1	PORPOISE	1109	n/a	1	n/a	n/a	n/a	n/a	n/a
1838.314	n/a	REC_WORD	919157	wordpools/wasnorm_wordpool_less_exclusions.txt	LTP254	ltpFR	4	9	1	GOO	648	n/a	0	n/a	n/a	n/a	n/a	n/a
1854.428	n/a	REC_WORD	927214	wordpools/wasnorm_wordpool_less_exclusions.txt	LTP254	ltpFR	4	9	0	FACTORY	548	n/a	1	n/a	n/a	n/a	n/a	n/a
1858.584	n/a	REC_WORD	929292	wordpools/wasnorm_wordpool_less_exclusions.txt	LTP254	ltpFR	4	9	0	CATERPILLAR	259	n/a	0	n/a	n/a	n/a	n/a	n/a
1927.7	n/a	WORD	963850	wordpools/wasnorm_wordpool_less_exclusions.txt	LTP254	ltpFR	4	10	1	RELATIVE	1182	n/a	1	0	0.5869140625	0.422607421875	lower	../fonts/amplitud.ttf
1931.744	n/a	WORD	965872	wordpools/wasnorm_wordpool_less_exclusions.txt	LTP254	ltpFR	4	10	1	FOE	587	n/a	1	0	0.5869140625	0.422607421875	lower	../fonts/amplitud.ttf
1935.788	n/a	WORD	967894	wordpools/wasnorm_wordpool_less_exclusions.txt	LTP254	ltpFR	4	10	1	SILVERWARE	1308	n/a	0	0	0.5869140625	0.422607421875	lower	../fonts/amplitud.ttf
1939.65	n/a	WORD	969825	wordpools/wasnorm_wordpool_less_exclusions.txt	LTP254	ltpFR	4	10	1	MEAL	882	n/a	0	0	0.5869140625	0.422607421875	lower	../fonts/amplitud.ttf
1943.594	n/a	WORD	971797	wordpools/wasnorm_wordpool_less_exclusions.txt	LTP254	ltpFR	4	10	1	SNAKE	1333	n/a	1	0	0.5869140625	0.422607421875	lower	../fonts/amplitud.ttf
1947.556	n/a	WORD	973778	wordpools/wasnorm_wordpool_less_exclusions.txt	LTP254	ltpFR	4	10	1	BAND	78	n/a	1	0	0.5869140625	0.422607421875	lower	../fonts/amplitud.ttf
1951.666	n/a	WORD	975833	wordpools/wasnorm_wordpool_less_exclusions.txt	LTP254	ltpFR	4	10	1	FLOOR	581	n/a	0	0	0.5869140625	0.422607421875	lower	../fonts/amplitud.ttf
1955.726	n/a	WORD	977863	wordpools/wasnorm_wordpool_less_exclusions.txt	LTP254	ltpFR	4	10	1	CANOE	233	n/a	0	0	0.5869140625	0.422607421875	lower	../fonts/amplitud.ttf
1959.638	n/a	WORD	979819	wordpools/wasnorm_wordpool_less_exclusions.txt	LTP254	ltpFR	4	10	1	SHORTCAKE	1292	n/a	0	0	0.5869140625	0.422607421875	lower	../fonts/amplitud.ttf
1963.848	n/a	WORD	981924	wordpools/wasnorm_wordpool_less_exclusions.txt	LTP254	ltpFR	4	10	1	BLACKBERRY	132	n/a	1	0	0.5869140625	0.422607421875	lower	../fonts/amplitud.ttf
1967.876	n/a	WORD	983938	wordpools/wasnorm_wordpool_less_exclusions.txt	LTP254	ltpFR	4	10	1	ANTEATER	26	n/a	1	0	0.5869140625	0.422607421875	lower	../fonts/amplitud.ttf
1972.034	n/a	WORD	986017	wordpools/wasnorm_wordpool_less_exclusions.txt	LTP254	ltpFR	4	10	1	WHEEL	1603	n/a	0	0	0.5869140625	0.422607421875	lower	../fonts/amplitud.ttf
1975.914	n/a	WORD	987957	wordpools/wasnorm_wordpool_less_exclusions.txt	LTP254	ltpFR	4	10	1	KEYBOARD	774	n/a	0	0	0.5869140625	0.422607421875	lower	../fonts/amplitud.ttf
1980.04	n/a	WORD	990020	wordpools/wasnorm_wordpool_less_exclusions.txt	LTP254	ltpFR	4	10	1	TIGER	1467	n/a	1	0	0.5869140625	0.422607421875	lower	../fonts/amplitud.ttf
1984.05	n/a	WORD	992025	wordpools/wasnorm_wordpool_less_exclusions.txt	LTP254	ltpFR	4	10	1	PUBLICATION	1136	n/a	0	0	0.5869140625	0.422607421875	lower	../fonts/amplitud.ttf
1988.162	n/a	WORD	994081	wordpools/wasnorm_wordpool_less_exclusions.txt	LTP254	ltpFR	4	10	1	DASHBOARD	441	n/a	0	0	0.5869140625	0.422607421875	lower	../fonts/amplitud.ttf
1994.154	n/a	REC_START	997077	n/a	LTP254	ltpFR	4	10	n/a	n/a	n/a	n/a	n/a	n/a	n/a	n/a	n/a	n/a
1995.086	n/a	REC_WORD	997543	wordpools/wasnorm_wordpool_less_exclusions.txt	LTP254	ltpFR	4	10	1	DASHBOARD	441	n/a	0	n/a	n/a	n/a	n/a	n/a
1996.098	n/a	REC_WORD	998049	wordpools/wasnorm_wordpool_less_exclusions.txt	LTP254	ltpFR	4	10	1	PUBLICATION	1136	n/a	0	n/a	n/a	n/a	n/a	n/a
1997.648	n/a	REC_WORD	998824	wordpools/wasnorm_wordpool_less_exclusions.txt	LTP254	ltpFR	4	10	1	TIGER	1467	n/a	1	n/a	n/a	n/a	n/a	n/a
1998.684	n/a	REC_WORD	999342	wordpools/wasnorm_wordpool_less_exclusions.txt	LTP254	ltpFR	4	10	1	ANTEATER	26	n/a	1	n/a	n/a	n/a	n/a	n/a
2000.058	n/a	REC_WORD	1000029	wordpools/wasnorm_wordpool_less_exclusions.txt	LTP254	ltpFR	4	10	1	RELATIVE	1182	n/a	1	n/a	n/a	n/a	n/a	n/a
2001.792	n/a	REC_WORD	1000896	wordpools/wasnorm_wordpool_less_exclusions.txt	LTP254	ltpFR	4	10	1	FOE	587	n/a	1	n/a	n/a	n/a	n/a	n/a
2003.022	n/a	REC_WORD	1001511	wordpools/wasnorm_wordpool_less_exclusions.txt	LTP254	ltpFR	4	10	1	SILVERWARE	1308	n/a	0	n/a	n/a	n/a	n/a	n/a
2006.532	n/a	REC_WORD	1003266	wordpools/wasnorm_wordpool_less_exclusions.txt	LTP254	ltpFR	4	10	1	BLACKBERRY	132	n/a	1	n/a	n/a	n/a	n/a	n/a
2007.674	n/a	REC_WORD	1003837	wordpools/wasnorm_wordpool_less_exclusions.txt	LTP254	ltpFR	4	10	1	SHORTCAKE	1292	n/a	0	n/a	n/a	n/a	n/a	n/a
2041.076	n/a	REC_WORD	1020538	wordpools/wasnorm_wordpool_less_exclusions.txt	LTP254	ltpFR	4	10	1	MEAL	882	n/a	0	n/a	n/a	n/a	n/a	n/a
2061.354	n/a	REC_WORD	1030677	wordpools/wasnorm_wordpool_less_exclusions.txt	LTP254	ltpFR	4	10	1	PUBLICATION	1136	n/a	0	n/a	n/a	n/a	n/a	n/a
2091.94	n/a	WORD	1045970	wordpools/wasnorm_wordpool_less_exclusions.txt	LTP254	ltpFR	4	11	0	SCENERY	1247	n/a	1	1	0.412841796875	0.57763671875	upper	../fonts/zerothre.ttf
2095.984	n/a	WORD	1047992	wordpools/wasnorm_wordpool_less_exclusions.txt	LTP254	ltpFR	4	11	0	YACHT	1629	n/a	1	1	0.412841796875	0.57763671875	upper	../fonts/zerothre.ttf
2100.028	n/a	WORD	1050014	wordpools/wasnorm_wordpool_less_exclusions.txt	LTP254	ltpFR	4	11	0	SWAN	1417	n/a	1	1	0.412841796875	0.57763671875	upper	../fonts/zerothre.ttf
2103.924	n/a	WORD	1051962	wordpools/wasnorm_wordpool_less_exclusions.txt	LTP254	ltpFR	4	11	0	OWL	992	n/a	1	1	0.412841796875	0.57763671875	upper	../fonts/zerothre.ttf
2107.902	n/a	WORD	1053951	wordpools/wasnorm_wordpool_less_exclusions.txt	LTP254	ltpFR	4	11	1	DINNER	468	n/a	0	0	0.5869140625	0.422607421875	lower	../fonts/amplitud.ttf
2111.896	n/a	WORD	1055948	wordpools/wasnorm_wordpool_less_exclusions.txt	LTP254	ltpFR	4	11	1	VESSEL	1558	n/a	0	0	0.5869140625	0.422607421875	lower	../fonts/amplitud.ttf
2115.806	n/a	WORD	1057903	wordpools/wasnorm_wordpool_less_exclusions.txt	LTP254	ltpFR	4	11	1	HOOK	715	n/a	0	0	0.5869140625	0.422607421875	lower	../fonts/amplitud.ttf
2119.9	n/a	WORD	1059950	wordpools/wasnorm_wordpool_less_exclusions.txt	LTP254	ltpFR	4	11	1	SEAFOOD	1260	n/a	1	0	0.5869140625	0.422607421875	lower	../fonts/amplitud.ttf
2123.744	n/a	WORD	1061872	wordpools/wasnorm_wordpool_less_exclusions.txt	LTP254	ltpFR	4	11	1	PAN	1008	n/a	0	0	0.5869140625	0.422607421875	lower	../fonts/amplitud.ttf
2127.838	n/a	WORD	1063919	wordpools/wasnorm_wordpool_less_exclusions.txt	LTP254	ltpFR	4	11	1	NAPKIN	937	n/a	0	0	0.5869140625	0.422607421875	lower	../fonts/amplitud.ttf
2131.982	n/a	WORD	1065991	wordpools/wasnorm_wordpool_less_exclusions.txt	LTP254	ltpFR	4	11	0	FLAG	573	n/a	1	1	0.412841796875	0.57763671875	upper	../fonts/zerothre.ttf
2135.826	n/a	WORD	1067913	wordpools/wasnorm_wordpool_less_exclusions.txt	LTP254	ltpFR	4	11	0	SILK	1307	n/a	0	1	0.412841796875	0.57763671875	upper	../fonts/zerothre.ttf
2139.904	n/a	WORD	1069952	wordpools/wasnorm_wordpool_less_exclusions.txt	LTP254	ltpFR	4	11	1	GUARD	667	n/a	1	0	0.5869140625	0.422607421875	lower	../fonts/amplitud.ttf
2144.082	n/a	WORD	1072041	wordpools/wasnorm_wordpool_less_exclusions.txt	LTP254	ltpFR	4	11	1	PRINCESS	1125	n/a	1	0	0.5869140625	0.422607421875	lower	../fonts/amplitud.ttf
2148.158	n/a	WORD	1074079	wordpools/wasnorm_wordpool_less_exclusions.txt	LTP254	ltpFR	4	11	0	BRIDE	173	n/a	1	1	0.412841796875	0.57763671875	upper	../fonts/zerothre.ttf
2152.002	n/a	WORD	1076001	wordpools/wasnorm_wordpool_less_exclusions.txt	LTP254	ltpFR	4	11	0	FRAME	600	n/a	0	1	0.412841796875	0.57763671875	upper	../fonts/zerothre.ttf
2157.696	n/a	REC_START	1078848	n/a	LTP254	ltpFR	4	11	n/a	n/a	n/a	n/a	n/a	n/a	n/a	n/a	n/a	n/a
2158.07	n/a	REC_WORD	1079035	wordpools/wasnorm_wordpool_less_exclusions.txt	LTP254	ltpFR	4	11	0	FRAME	600	n/a	0	n/a	n/a	n/a	n/a	n/a
2159.29	n/a	REC_WORD	1079645	wordpools/wasnorm_wordpool_less_exclusions.txt	LTP254	ltpFR	4	11	1	PRINCESS	1125	n/a	1	n/a	n/a	n/a	n/a	n/a
2160.252	n/a	REC_WORD	1080126	wordpools/wasnorm_wordpool_less_exclusions.txt	LTP254	ltpFR	4	11	0	BRIDE	173	n/a	1	n/a	n/a	n/a	n/a	n/a
2161.32	n/a	REC_WORD	1080660	wordpools/wasnorm_wordpool_less_exclusions.txt	LTP254	ltpFR	4	11	1	GUARD	667	n/a	1	n/a	n/a	n/a	n/a	n/a
2162.376	n/a	REC_WORD	1081188	wordpools/wasnorm_wordpool_less_exclusions.txt	LTP254	ltpFR	4	11	0	YACHT	1629	n/a	1	n/a	n/a	n/a	n/a	n/a
2163.506	n/a	REC_WORD	1081753	wordpools/wasnorm_wordpool_less_exclusions.txt	LTP254	ltpFR	4	11	1	VESSEL	1558	n/a	0	n/a	n/a	n/a	n/a	n/a
2164.808	n/a	REC_WORD	1082404	wordpools/wasnorm_wordpool_less_exclusions.txt	LTP254	ltpFR	4	11	n/a	SCENE	-1	n/a	n/a	n/a	n/a	n/a	n/a	n/a
2167.856	n/a	REC_WORD	1083928	wordpools/wasnorm_wordpool_less_exclusions.txt	LTP254	ltpFR	4	11	1	NAPKIN	937	n/a	0	n/a	n/a	n/a	n/a	n/a
2169.03	n/a	REC_WORD	1084515	wordpools/wasnorm_wordpool_less_exclusions.txt	LTP254	ltpFR	4	11	1	SEAFOOD	1260	n/a	1	n/a	n/a	n/a	n/a	n/a
2170.394	n/a	REC_WORD	1085197	wordpools/wasnorm_wordpool_less_exclusions.txt	LTP254	ltpFR	4	11	1	HOOK	715	n/a	0	n/a	n/a	n/a	n/a	n/a
2172.056	n/a	REC_WORD	1086028	wordpools/wasnorm_wordpool_less_exclusions.txt	LTP254	ltpFR	4	11	0	SWAN	1417	n/a	1	n/a	n/a	n/a	n/a	n/a
2173.766	n/a	REC_WORD	1086883	wordpools/wasnorm_wordpool_less_exclusions.txt	LTP254	ltpFR	4	11	0	OWL	992	n/a	1	n/a	n/a	n/a	n/a	n/a
2177.57	n/a	REC_WORD	1088785	wordpools/wasnorm_wordpool_less_exclusions.txt	LTP254	ltpFR	4	11	1	DINNER	468	n/a	0	n/a	n/a	n/a	n/a	n/a
2180.574	n/a	REC_WORD	1090287	wordpools/wasnorm_wordpool_less_exclusions.txt	LTP254	ltpFR	4	11	1	PAN	1008	n/a	0	n/a	n/a	n/a	n/a	n/a
2249.924	n/a	WORD	1124962	wordpools/wasnorm_wordpool_less_exclusions.txt	LTP254	ltpFR	4	12	-1	PAD	998	n/a	-1	1	1.0	1.0	upper	../fonts/Verdana.ttf
2253.952	n/a	WORD	1126976	wordpools/wasnorm_wordpool_less_exclusions.txt	LTP254	ltpFR	4	12	-1	BED	110	n/a	-1	1	1.0	1.0	upper	../fonts/Verdana.ttf
2257.846	n/a	WORD	1128923	wordpools/wasnorm_wordpool_less_exclusions.txt	LTP254	ltpFR	4	12	-1	LIBRARY	816	n/a	-1	1	1.0	1.0	upper	../fonts/Verdana.ttf
2262.022	n/a	WORD	1131011	wordpools/wasnorm_wordpool_less_exclusions.txt	LTP254	ltpFR	4	12	-1	PASSAGE	1019	n/a	-1	1	1.0	1.0	upper	../fonts/Verdana.ttf
2265.95	n/a	WORD	1132975	wordpools/wasnorm_wordpool_less_exclusions.txt	LTP254	ltpFR	4	12	-1	GYMNAST	675	n/a	-1	1	1.0	1.0	upper	../fonts/Verdana.ttf
2269.994	n/a	WORD	1134997	wordpools/wasnorm_wordpool_less_exclusions.txt	LTP254	ltpFR	4	12	-1	ACROBAT	4	n/a	-1	1	1.0	1.0	upper	../fonts/Verdana.ttf
2273.856	n/a	WORD	1136928	wordpools/wasnorm_wordpool_less_exclusions.txt	LTP254	ltpFR	4	12	-1	SPATULA	1348	n/a	-1	1	1.0	1.0	upper	../fonts/Verdana.ttf
2278.05	n/a	WORD	1139025	wordpools/wasnorm_wordpool_less_exclusions.txt	LTP254	ltpFR	4	12	-1	RACCOON	1153	n/a	-1	1	1.0	1.0	upper	../fonts/Verdana.ttf
2282.11	n/a	WORD	1141055	wordpools/wasnorm_wordpool_less_exclusions.txt	LTP254	ltpFR	4	12	-1	TECHNICIAN	1443	n/a	-1	1	1.0	1.0	upper	../fonts/Verdana.ttf
2286.222	n/a	WORD	1143111	wordpools/wasnorm_wordpool_less_exclusions.txt	LTP254	ltpFR	4	12	-1	BUILDING	191	n/a	-1	1	1.0	1.0	upper	../fonts/Verdana.ttf
2290.216	n/a	WORD	1145108	wordpools/wasnorm_wordpool_less_exclusions.txt	LTP254	ltpFR	4	12	-1	FARM	552	n/a	-1	1	1.0	1.0	upper	../fonts/Verdana.ttf
2294.342	n/a	WORD	1147171	wordpools/wasnorm_wordpool_less_exclusions.txt	LTP254	ltpFR	4	12	-1	CAMERA	224	n/a	-1	1	1.0	1.0	upper	../fonts/Verdana.ttf
2298.304	n/a	WORD	1149152	wordpools/wasnorm_wordpool_less_exclusions.txt	LTP254	ltpFR	4	12	-1	LANDSCAPE	799	n/a	-1	1	1.0	1.0	upper	../fonts/Verdana.ttf
2302.348	n/a	WORD	1151174	wordpools/wasnorm_wordpool_less_exclusions.txt	LTP254	ltpFR	4	12	-1	MICROSCOPE	891	n/a	-1	1	1.0	1.0	upper	../fonts/Verdana.ttf
2306.558	n/a	WORD	1153279	wordpools/wasnorm_wordpool_less_exclusions.txt	LTP254	ltpFR	4	12	-1	ENGINE	535	n/a	-1	1	1.0	1.0	upper	../fonts/Verdana.ttf
2310.402	n/a	WORD	1155201	wordpools/wasnorm_wordpool_less_exclusions.txt	LTP254	ltpFR	4	12	-1	BUILDER	190	n/a	-1	1	1.0	1.0	upper	../fonts/Verdana.ttf
2316.128	n/a	REC_START	1158064	n/a	LTP254	ltpFR	4	12	n/a	n/a	n/a	n/a	n/a	n/a	n/a	n/a	n/a	n/a
2317.418	n/a	REC_WORD	1158709	wordpools/wasnorm_wordpool_less_exclusions.txt	LTP254	ltpFR	4	12	-1	BUILDER	190	n/a	-1	n/a	n/a	n/a	n/a	n/a
2318.64	n/a	REC_WORD	1159320	wordpools/wasnorm_wordpool_less_exclusions.txt	LTP254	ltpFR	4	12	-1	BUILDING	191	n/a	-1	n/a	n/a	n/a	n/a	n/a
2319.674	n/a	REC_WORD	1159837	wordpools/wasnorm_wordpool_less_exclusions.txt	LTP254	ltpFR	4	12	-1	FARM	552	n/a	-1	n/a	n/a	n/a	n/a	n/a
2321.12	n/a	REC_WORD	1160560	wordpools/wasnorm_wordpool_less_exclusions.txt	LTP254	ltpFR	4	12	-1	LANDSCAPE	799	n/a	-1	n/a	n/a	n/a	n/a	n/a
2322.216	n/a	REC_WORD	1161108	wordpools/wasnorm_wordpool_less_exclusions.txt	LTP254	ltpFR	4	12	-1	CAMERA	224	n/a	-1	n/a	n/a	n/a	n/a	n/a
2323.27	n/a	REC_WORD	1161635	wordpools/wasnorm_wordpool_less_exclusions.txt	LTP254	ltpFR	4	12	-1	MICROSCOPE	891	n/a	-1	n/a	n/a	n/a	n/a	n/a
2324.9	n/a	REC_WORD	1162450	wordpools/wasnorm_wordpool_less_exclusions.txt	LTP254	ltpFR	4	12	-1	PAD	998	n/a	-1	n/a	n/a	n/a	n/a	n/a
2326.11	n/a	REC_WORD	1163055	wordpools/wasnorm_wordpool_less_exclusions.txt	LTP254	ltpFR	4	12	-1	BED	110	n/a	-1	n/a	n/a	n/a	n/a	n/a
2327.258	n/a	REC_WORD	1163629	wordpools/wasnorm_wordpool_less_exclusions.txt	LTP254	ltpFR	4	12	-1	GYMNAST	675	n/a	-1	n/a	n/a	n/a	n/a	n/a
2328.458	n/a	REC_WORD	1164229	wordpools/wasnorm_wordpool_less_exclusions.txt	LTP254	ltpFR	4	12	-1	ACROBAT	4	n/a	-1	n/a	n/a	n/a	n/a	n/a
2329.994	n/a	REC_WORD	1164997	wordpools/wasnorm_wordpool_less_exclusions.txt	LTP254	ltpFR	4	12	-1	SPATULA	1348	n/a	-1	n/a	n/a	n/a	n/a	n/a
2378.6	n/a	REC_WORD	1189300	wordpools/wasnorm_wordpool_less_exclusions.txt	LTP254	ltpFR	4	12	-1	LIBRARY	816	n/a	-1	n/a	n/a	n/a	n/a	n/a
2380.708	n/a	REC_WORD	1190354	wordpools/wasnorm_wordpool_less_exclusions.txt	LTP254	ltpFR	4	12	-1	PASSAGE	1019	n/a	-1	n/a	n/a	n/a	n/a	n/a
2391.732	n/a	REST_REWET	1195866	n/a	LTP254	ltpFR	4	12	n/a	n/a	n/a	n/a	n/a	n/a	n/a	n/a	n/a	n/a
2834.894	n/a	WORD	1417447	wordpools/wasnorm_wordpool_less_exclusions.txt	LTP254	ltpFR	4	13	0	FAIRY	549	n/a	0	1	0.412841796875	0.57763671875	upper	../fonts/zerothre.ttf
2839.104	n/a	WORD	1419552	wordpools/wasnorm_wordpool_less_exclusions.txt	LTP254	ltpFR	4	13	0	PUDDLE	1140	n/a	1	1	0.412841796875	0.57763671875	upper	../fonts/zerothre.ttf
2843.046	n/a	WORD	1421523	wordpools/wasnorm_wordpool_less_exclusions.txt	LTP254	ltpFR	4	13	0	OVEN	991	n/a	1	1	0.412841796875	0.57763671875	upper	../fonts/zerothre.ttf
2847.242	n/a	WORD	1423621	wordpools/wasnorm_wordpool_less_exclusions.txt	LTP254	ltpFR	4	13	0	TAPE	1433	n/a	0	1	0.412841796875	0.57763671875	upper	../fonts/zerothre.ttf
2851.302	n/a	WORD	1425651	wordpools/wasnorm_wordpool_less_exclusions.txt	LTP254	ltpFR	4	13	0	CAVE	263	n/a	1	1	0.412841796875	0.57763671875	upper	../fonts/zerothre.ttf
2855.512	n/a	WORD	1427756	wordpools/wasnorm_wordpool_less_exclusions.txt	LTP254	ltpFR	4	13	0	DAD	433	n/a	1	1	0.412841796875	0.57763671875	upper	../fonts/zerothre.ttf
2859.624	n/a	WORD	1429812	wordpools/wasnorm_wordpool_less_exclusions.txt	LTP254	ltpFR	4	13	0	CYLINDER	432	n/a	0	1	0.412841796875	0.57763671875	upper	../fonts/zerothre.ttf
2863.684	n/a	WORD	1431842	wordpools/wasnorm_wordpool_less_exclusions.txt	LTP254	ltpFR	4	13	0	TRIANGLE	1504	n/a	0	1	0.412841796875	0.57763671875	upper	../fonts/zerothre.ttf
2867.894	n/a	WORD	1433947	wordpools/wasnorm_wordpool_less_exclusions.txt	LTP254	ltpFR	4	13	0	DRYER	503	n/a	1	1	0.412841796875	0.57763671875	upper	../fonts/zerothre.ttf
2871.94	n/a	WORD	1435970	wordpools/wasnorm_wordpool_less_exclusions.txt	LTP254	ltpFR	4	13	0	PORCUPINE	1107	n/a	0	1	0.412841796875	0.57763671875	upper	../fonts/zerothre.ttf
2875.916	n/a	WORD	1437958	wordpools/wasnorm_wordpool_less_exclusions.txt	LTP254	ltpFR	4	13	0	CUE	422	n/a	1	1	0.412841796875	0.57763671875	upper	../fonts/zerothre.ttf
2880.076	n/a	WORD	1440038	wordpools/wasnorm_wordpool_less_exclusions.txt	LTP254	ltpFR	4	13	0	HANGER	687	n/a	0	1	0.412841796875	0.57763671875	upper	../fonts/zerothre.ttf
2884.036	n/a	WORD	1442018	wordpools/wasnorm_wordpool_less_exclusions.txt	LTP254	ltpFR	4	13	0	CHAMPAGNE	278	n/a	0	1	0.412841796875	0.57763671875	upper	../fonts/zerothre.ttf
2887.98	n/a	WORD	1443990	wordpools/wasnorm_wordpool_less_exclusions.txt	LTP254	ltpFR	4	13	0	BRANDY	169	n/a	0	1	0.412841796875	0.57763671875	upper	../fonts/zerothre.ttf
2892.158	n/a	WORD	1446079	wordpools/wasnorm_wordpool_less_exclusions.txt	LTP254	ltpFR	4	13	0	SPONGE	1355	n/a	0	1	0.412841796875	0.57763671875	upper	../fonts/zerothre.ttf
2896.22	n/a	WORD	1448110	wordpools/wasnorm_wordpool_less_exclusions.txt	LTP254	ltpFR	4	13	0	MISTER	901	n/a	1	1	0.412841796875	0.57763671875	upper	../fonts/zerothre.ttf
2902.01	n/a	REC_START	1451005	n/a	LTP254	ltpFR	4	13	n/a	n/a	n/a	n/a	n/a	n/a	n/a	n/a	n/a	n/a
2902.74	n/a	REC_WORD	1451370	wordpools/wasnorm_wordpool_less_exclusions.txt	LTP254	ltpFR	4	13	0	MISTER	901	n/a	1	n/a	n/a	n/a	n/a	n/a
2904.098	n/a	REC_WORD	1452049	wordpools/wasnorm_wordpool_less_exclusions.txt	LTP254	ltpFR	4	13	0	DAD	433	n/a	1	n/a	n/a	n/a	n/a	n/a
2905.094	n/a	REC_WORD	1452547	wordpools/wasnorm_wordpool_less_exclusions.txt	LTP254	ltpFR	4	13	0	CAVE	263	n/a	1	n/a	n/a	n/a	n/a	n/a
2906.036	n/a	REC_WORD	1453018	wordpools/wasnorm_wordpool_less_exclusions.txt	LTP254	ltpFR	4	13	0	CHAMPAGNE	278	n/a	0	n/a	n/a	n/a	n/a	n/a
2907.636	n/a	REC_WORD	1453818	wordpools/wasnorm_wordpool_less_exclusions.txt	LTP254	ltpFR	4	13	0	SPONGE	1355	n/a	0	n/a	n/a	n/a	n/a	n/a
2911.79	n/a	REC_WORD	1455895	wordpools/wasnorm_wordpool_less_exclusions.txt	LTP254	ltpFR	4	13	0	CUE	422	n/a	1	n/a	n/a	n/a	n/a	n/a
2917.264	n/a	REC_WORD	1458632	wordpools/wasnorm_wordpool_less_exclusions.txt	LTP254	ltpFR	4	13	0	OVEN	991	n/a	1	n/a	n/a	n/a	n/a	n/a
2918.562	n/a	REC_WORD	1459281	wordpools/wasnorm_wordpool_less_exclusions.txt	LTP254	ltpFR	4	13	0	DRYER	503	n/a	1	n/a	n/a	n/a	n/a	n/a
2921.948	n/a	REC_WORD	1460974	wordpools/wasnorm_wordpool_less_exclusions.txt	LTP254	ltpFR	4	13	0	FAIRY	549	n/a	0	n/a	n/a	n/a	n/a	n/a
2926.48	n/a	REC_WORD	1463240	wordpools/wasnorm_wordpool_less_exclusions.txt	LTP254	ltpFR	4	13	0	PORCUPINE	1107	n/a	0	n/a	n/a	n/a	n/a	n/a
2984.538	n/a	WORD	1492269	wordpools/wasnorm_wordpool_less_exclusions.txt	LTP254	ltpFR	4	14	1	TAXI	1438	n/a	0	0	0.5869140625	0.422607421875	lower	../fonts/amplitud.ttf
2988.748	n/a	WORD	1494374	wordpools/wasnorm_wordpool_less_exclusions.txt	LTP254	ltpFR	4	14	1	STAGE	1366	n/a	0	0	0.5869140625	0.422607421875	lower	../fonts/amplitud.ttf
2992.66	n/a	WORD	1496330	wordpools/wasnorm_wordpool_less_exclusions.txt	LTP254	ltpFR	4	14	0	BOXER	160	n/a	1	1	0.412841796875	0.57763671875	upper	../fonts/zerothre.ttf
2996.52	n/a	WORD	1498260	wordpools/wasnorm_wordpool_less_exclusions.txt	LTP254	ltpFR	4	14	0	AWARD	63	n/a	0	1	0.412841796875	0.57763671875	upper	../fonts/zerothre.ttf
3000.482	n/a	WORD	1500241	wordpools/wasnorm_wordpool_less_exclusions.txt	LTP254	ltpFR	4	14	0	TREASURE	1500	n/a	0	1	0.412841796875	0.57763671875	upper	../fonts/zerothre.ttf
3004.56	n/a	WORD	1502280	wordpools/wasnorm_wordpool_less_exclusions.txt	LTP254	ltpFR	4	14	0	SINK	1309	n/a	1	1	0.412841796875	0.57763671875	upper	../fonts/zerothre.ttf
3008.62	n/a	WORD	1504310	wordpools/wasnorm_wordpool_less_exclusions.txt	LTP254	ltpFR	4	14	1	DOG	480	n/a	1	0	0.5869140625	0.422607421875	lower	../fonts/amplitud.ttf
3012.78	n/a	WORD	1506390	wordpools/wasnorm_wordpool_less_exclusions.txt	LTP254	ltpFR	4	14	1	PRAIRIE	1118	n/a	1	0	0.5869140625	0.422607421875	lower	../fonts/amplitud.ttf
3016.824	n/a	WORD	1508412	wordpools/wasnorm_wordpool_less_exclusions.txt	LTP254	ltpFR	4	14	1	FIREMAN	569	n/a	1	0	0.5869140625	0.422607421875	lower	../fonts/amplitud.ttf
3020.686	n/a	WORD	1510343	wordpools/wasnorm_wordpool_less_exclusions.txt	LTP254	ltpFR	4	14	1	WINGS	1614	n/a	0	0	0.5869140625	0.422607421875	lower	../fonts/amplitud.ttf
3024.746	n/a	WORD	1512373	wordpools/wasnorm_wordpool_less_exclusions.txt	LTP254	ltpFR	4	14	0	PEDESTRIAN	1038	n/a	1	1	0.412841796875	0.57763671875	upper	../fonts/zerothre.ttf
3028.674	n/a	WORD	1514337	wordpools/wasnorm_wordpool_less_exclusions.txt	LTP254	ltpFR	4	14	0	PUPPY	1144	n/a	0	1	0.412841796875	0.57763671875	upper	../fonts/zerothre.ttf
3032.634	n/a	WORD	1516317	wordpools/wasnorm_wordpool_less_exclusions.txt	LTP254	ltpFR	4	14	0	TORCH	1484	n/a	1	1	0.412841796875	0.57763671875	upper	../fonts/zerothre.ttf
3036.678	n/a	WORD	1518339	wordpools/wasnorm_wordpool_less_exclusions.txt	LTP254	ltpFR	4	14	0	SIDEWALK	1303	n/a	1	1	0.412841796875	0.57763671875	upper	../fonts/zerothre.ttf
3040.506	n/a	WORD	1520253	wordpools/wasnorm_wordpool_less_exclusions.txt	LTP254	ltpFR	4	14	1	ALLEY	15	n/a	0	0	0.5869140625	0.422607421875	lower	../fonts/amplitud.ttf
3044.434	n/a	WORD	1522217	wordpools/wasnorm_wordpool_less_exclusions.txt	LTP254	ltpFR	4	14	1	BEETLE	116	n/a	1	0	0.5869140625	0.422607421875	lower	../fonts/amplitud.ttf
3050.16	n/a	REC_START	1525080	n/a	LTP254	ltpFR	4	14	n/a	n/a	n/a	n/a	n/a	n/a	n/a	n/a	n/a	n/a
3051.054	n/a	REC_WORD	1525527	wordpools/wasnorm_wordpool_less_exclusions.txt	LTP254	ltpFR	4	14	1	BEETLE	116	n/a	1	n/a	n/a	n/a	n/a	n/a
3051.948	n/a	REC_WORD	1525974	wordpools/wasnorm_wordpool_less_exclusions.txt	LTP254	ltpFR	4	14	1	TAXI	1438	n/a	0	n/a	n/a	n/a	n/a	n/a
3053.096	n/a	REC_WORD	1526548	wordpools/wasnorm_wordpool_less_exclusions.txt	LTP254	ltpFR	4	14	1	ALLEY	15	n/a	0	n/a	n/a	n/a	n/a	n/a
3053.954	n/a	REC_WORD	1526977	wordpools/wasnorm_wordpool_less_exclusions.txt	LTP254	ltpFR	4	14	0	SIDEWALK	1303	n/a	1	n/a	n/a	n/a	n/a	n/a
3055.328	n/a	REC_WORD	1527664	wordpools/wasnorm_wordpool_less_exclusions.txt	LTP254	ltpFR	4	14	0	PEDESTRIAN	1038	n/a	1	n/a	n/a	n/a	n/a	n/a
3056.622	n/a	REC_WORD	1528311	wordpools/wasnorm_wordpool_less_exclusions.txt	LTP254	ltpFR	4	14	0	BOXER	160	n/a	1	n/a	n/a	n/a	n/a	n/a
3057.704	n/a	REC_WORD	1528852	wordpools/wasnorm_wordpool_less_exclusions.txt	LTP254	ltpFR	4	14	1	FIREMAN	569	n/a	1	n/a	n/a	n/a	n/a	n/a
3059.11	n/a	REC_WORD	1529555	wordpools/wasnorm_wordpool_less_exclusions.txt	LTP254	ltpFR	4	14	0	PUPPY	1144	n/a	0	n/a	n/a	n/a	n/a	n/a
3061.346	n/a	REC_WORD	1530673	wordpools/wasnorm_wordpool_less_exclusions.txt	LTP254	ltpFR	4	14	1	PRAIRIE	1118	n/a	1	n/a	n/a	n/a	n/a	n/a
3146.25	n/a	WORD	1573125	wordpools/wasnorm_wordpool_less_exclusions.txt	LTP254	ltpFR	4	15	1	STALLION	1369	n/a	1	0	0.5869140625	0.422607421875	lower	../fonts/amplitud.ttf
3150.194	n/a	WORD	1575097	wordpools/wasnorm_wordpool_less_exclusions.txt	LTP254	ltpFR	4	15	1	CAN	225	n/a	0	0	0.5869140625	0.422607421875	lower	../fonts/amplitud.ttf
3154.122	n/a	WORD	1577061	wordpools/wasnorm_wordpool_less_exclusions.txt	LTP254	ltpFR	4	15	1	GREASE	660	n/a	0	0	0.5869140625	0.422607421875	lower	../fonts/amplitud.ttf
3158.132	n/a	WORD	1579066	wordpools/wasnorm_wordpool_less_exclusions.txt	LTP254	ltpFR	4	15	1	RASH	1167	n/a	0	0	0.5869140625	0.422607421875	lower	../fonts/amplitud.ttf
3162.276	n/a	WORD	1581138	wordpools/wasnorm_wordpool_less_exclusions.txt	LTP254	ltpFR	4	15	1	VAULT	1550	n/a	0	0	0.5869140625	0.422607421875	lower	../fonts/amplitud.ttf
3166.204	n/a	WORD	1583102	wordpools/wasnorm_wordpool_less_exclusions.txt	LTP254	ltpFR	4	15	1	BUGLE	189	n/a	0	0	0.5869140625	0.422607421875	lower	../fonts/amplitud.ttf
3170.03	n/a	WORD	1585015	wordpools/wasnorm_wordpool_less_exclusions.txt	LTP254	ltpFR	4	15	1	DRIVER	499	n/a	1	0	0.5869140625	0.422607421875	lower	../fonts/amplitud.ttf
3174.176	n/a	WORD	1587088	wordpools/wasnorm_wordpool_less_exclusions.txt	LTP254	ltpFR	4	15	1	RADIATOR	1156	n/a	0	0	0.5869140625	0.422607421875	lower	../fonts/amplitud.ttf
3178.22	n/a	WORD	1589110	wordpools/wasnorm_wordpool_less_exclusions.txt	LTP254	ltpFR	4	15	1	DISHWASHER	475	n/a	0	0	0.5869140625	0.422607421875	lower	../fonts/amplitud.ttf
3182.214	n/a	WORD	1591107	wordpools/wasnorm_wordpool_less_exclusions.txt	LTP254	ltpFR	4	15	1	COW	393	n/a	1	0	0.5869140625	0.422607421875	lower	../fonts/amplitud.ttf
3186.29	n/a	WORD	1593145	wordpools/wasnorm_wordpool_less_exclusions.txt	LTP254	ltpFR	4	15	1	GOAT	644	n/a	1	0	0.5869140625	0.422607421875	lower	../fonts/amplitud.ttf
3190.202	n/a	WORD	1595101	wordpools/wasnorm_wordpool_less_exclusions.txt	LTP254	ltpFR	4	15	1	LAKE	796	n/a	0	0	0.5869140625	0.422607421875	lower	../fonts/amplitud.ttf
3194.246	n/a	WORD	1597123	wordpools/wasnorm_wordpool_less_exclusions.txt	LTP254	ltpFR	4	15	1	MAGAZINE	853	n/a	0	0	0.5869140625	0.422607421875	lower	../fonts/amplitud.ttf
3198.14	n/a	WORD	1599070	wordpools/wasnorm_wordpool_less_exclusions.txt	LTP254	ltpFR	4	15	1	NEWSPAPER	948	n/a	0	0	0.5869140625	0.422607421875	lower	../fonts/amplitud.ttf
3202.3	n/a	WORD	1601150	wordpools/wasnorm_wordpool_less_exclusions.txt	LTP254	ltpFR	4	15	1	UNICORN	1538	n/a	0	0	0.5869140625	0.422607421875	lower	../fonts/amplitud.ttf
3206.312	n/a	WORD	1603156	wordpools/wasnorm_wordpool_less_exclusions.txt	LTP254	ltpFR	4	15	1	PERISCOPE	1050	n/a	0	0	0.5869140625	0.422607421875	lower	../fonts/amplitud.ttf
3211.986	n/a	REC_START	1605993	n/a	LTP254	ltpFR	4	15	n/a	n/a	n/a	n/a	n/a	n/a	n/a	n/a	n/a	n/a
3212.84	n/a	REC_WORD	1606420	wordpools/wasnorm_wordpool_less_exclusions.txt	LTP254	ltpFR	4	15	1	PERISCOPE	1050	n/a	0	n/a	n/a	n/a	n/a	n/a
3213.97	n/a	REC_WORD	1606985	wordpools/wasnorm_wordpool_less_exclusions.txt	LTP254	ltpFR	4	15	1	UNICORN	1538	n/a	0	n/a	n/a	n/a	n/a	n/a
3215.084	n/a	REC_WORD	1607542	wordpools/wasnorm_wordpool_less_exclusions.txt	LTP254	ltpFR	4	15	1	GOAT	644	n/a	1	n/a	n/a	n/a	n/a	n/a
3216.012	n/a	REC_WORD	1608006	wordpools/wasnorm_wordpool_less_exclusions.txt	LTP254	ltpFR	4	15	1	COW	393	n/a	1	n/a	n/a	n/a	n/a	n/a
3216.86	n/a	REC_WORD	1608430	wordpools/wasnorm_wordpool_less_exclusions.txt	LTP254	ltpFR	4	15	1	STALLION	1369	n/a	1	n/a	n/a	n/a	n/a	n/a
3218.83	n/a	REC_WORD	1609415	wordpools/wasnorm_wordpool_less_exclusions.txt	LTP254	ltpFR	4	15	1	DRIVER	499	n/a	1	n/a	n/a	n/a	n/a	n/a
3221.192	n/a	REC_WORD	1610596	wordpools/wasnorm_wordpool_less_exclusions.txt	LTP254	ltpFR	4	15	1	GREASE	660	n/a	0	n/a	n/a	n/a	n/a	n/a
3222.35	n/a	REC_WORD	1611175	wordpools/wasnorm_wordpool_less_exclusions.txt	LTP254	ltpFR	4	15	1	CAN	225	n/a	0	n/a	n/a	n/a	n/a	n/a
3223.886	n/a	REC_WORD	1611943	wordpools/wasnorm_wordpool_less_exclusions.txt	LTP254	ltpFR	4	15	1	DISHWASHER	475	n/a	0	n/a	n/a	n/a	n/a	n/a
3231.378	n/a	REC_WORD	1615689	wordpools/wasnorm_wordpool_less_exclusions.txt	LTP254	ltpFR	4	15	1	LAKE	796	n/a	0	n/a	n/a	n/a	n/a	n/a
3286.43	n/a	REC_WORD	1643215	wordpools/wasnorm_wordpool_less_exclusions.txt	LTP254	ltpFR	4	15	1	NEWSPAPER	948	n/a	0	n/a	n/a	n/a	n/a	n/a
3293.1	n/a	WORD	1646550	wordpools/wasnorm_wordpool_less_exclusions.txt	LTP254	ltpFR	4	16	1	CROOK	412	n/a	1	0	0.5869140625	0.422607421875	lower	../fonts/amplitud.ttf
3297.094	n/a	WORD	1648547	wordpools/wasnorm_wordpool_less_exclusions.txt	LTP254	ltpFR	4	16	1	GOVERNOR	651	n/a	1	0	0.5869140625	0.422607421875	lower	../fonts/amplitud.ttf
3301.054	n/a	WORD	1650527	wordpools/wasnorm_wordpool_less_exclusions.txt	LTP254	ltpFR	4	16	1	FARMER	553	n/a	1	0	0.5869140625	0.422607421875	lower	../fonts/amplitud.ttf
3305.182	n/a	WORD	1652591	wordpools/wasnorm_wordpool_less_exclusions.txt	LTP254	ltpFR	4	16	1	PURSE	1145	n/a	0	0	0.5869140625	0.422607421875	lower	../fonts/amplitud.ttf
3309.008	n/a	WORD	1654504	wordpools/wasnorm_wordpool_less_exclusions.txt	LTP254	ltpFR	4	16	1	POCKETBOOK	1094	n/a	0	0	0.5869140625	0.422607421875	lower	../fonts/amplitud.ttf
3312.854	n/a	WORD	1656427	wordpools/wasnorm_wordpool_less_exclusions.txt	LTP254	ltpFR	4	16	1	LETTUCE	814	n/a	1	0	0.5869140625	0.422607421875	lower	../fonts/amplitud.ttf
3316.78	n/a	WORD	1658390	wordpools/wasnorm_wordpool_less_exclusions.txt	LTP254	ltpFR	4	16	1	CHEERLEADER	288	n/a	1	0	0.5869140625	0.422607421875	lower	../fonts/amplitud.ttf
3320.792	n/a	WORD	1660396	wordpools/wasnorm_wordpool_less_exclusions.txt	LTP254	ltpFR	4	16	1	CHEF	290	n/a	1	0	0.5869140625	0.422607421875	lower	../fonts/amplitud.ttf
3324.686	n/a	WORD	1662343	wordpools/wasnorm_wordpool_less_exclusions.txt	LTP254	ltpFR	4	16	1	SERVER	1272	n/a	1	0	0.5869140625	0.422607421875	lower	../fonts/amplitud.ttf
3328.796	n/a	WORD	1664398	wordpools/wasnorm_wordpool_less_exclusions.txt	LTP254	ltpFR	4	16	1	CARTON	251	n/a	0	0	0.5869140625	0.422607421875	lower	../fonts/amplitud.ttf
3332.856	n/a	WORD	1666428	wordpools/wasnorm_wordpool_less_exclusions.txt	LTP254	ltpFR	4	16	1	OLIVE	975	n/a	1	0	0.5869140625	0.422607421875	lower	../fonts/amplitud.ttf
3337.034	n/a	WORD	1668517	wordpools/wasnorm_wordpool_less_exclusions.txt	LTP254	ltpFR	4	16	1	PAPER	1011	n/a	0	0	0.5869140625	0.422607421875	lower	../fonts/amplitud.ttf
3341.178	n/a	WORD	1670589	wordpools/wasnorm_wordpool_less_exclusions.txt	LTP254	ltpFR	4	16	1	JOURNAL	760	n/a	0	0	0.5869140625	0.422607421875	lower	../fonts/amplitud.ttf
3345.072	n/a	WORD	1672536	wordpools/wasnorm_wordpool_less_exclusions.txt	LTP254	ltpFR	4	16	1	PORK	1108	n/a	0	0	0.5869140625	0.422607421875	lower	../fonts/amplitud.ttf
3348.95	n/a	WORD	1674475	wordpools/wasnorm_wordpool_less_exclusions.txt	LTP254	ltpFR	4	16	1	TWINE	1529	n/a	0	0	0.5869140625	0.422607421875	lower	../fonts/amplitud.ttf
3353.044	n/a	WORD	1676522	wordpools/wasnorm_wordpool_less_exclusions.txt	LTP254	ltpFR	4	16	1	ARENA	37	n/a	0	0	0.5869140625	0.422607421875	lower	../fonts/amplitud.ttf
3359.068	n/a	REC_START	1679534	n/a	LTP254	ltpFR	4	16	n/a	n/a	n/a	n/a	n/a	n/a	n/a	n/a	n/a	n/a
3359.644	n/a	REC_WORD	1679822	wordpools/wasnorm_wordpool_less_exclusions.txt	LTP254	ltpFR	4	16	1	CROOK	412	n/a	1	n/a	n/a	n/a	n/a	n/a
3360.506	n/a	REC_WORD	1680253	wordpools/wasnorm_wordpool_less_exclusions.txt	LTP254	ltpFR	4	16	1	GOVERNOR	651	n/a	1	n/a	n/a	n/a	n/a	n/a
3361.352	n/a	REC_WORD	1680676	wordpools/wasnorm_wordpool_less_exclusions.txt	LTP254	ltpFR	4	16	1	CHEF	290	n/a	1	n/a	n/a	n/a	n/a	n/a
3362.586	n/a	REC_WORD	1681293	wordpools/wasnorm_wordpool_less_exclusions.txt	LTP254	ltpFR	4	16	1	SERVER	1272	n/a	1	n/a	n/a	n/a	n/a	n/a
3364.026	n/a	REC_WORD	1682013	wordpools/wasnorm_wordpool_less_exclusions.txt	LTP254	ltpFR	4	16	1	ARENA	37	n/a	0	n/a	n/a	n/a	n/a	n/a
3365.4	n/a	REC_WORD	1682700	wordpools/wasnorm_wordpool_less_exclusions.txt	LTP254	ltpFR	4	16	1	PORK	1108	n/a	0	n/a	n/a	n/a	n/a	n/a
3366.452	n/a	REC_WORD	1683226	wordpools/wasnorm_wordpool_less_exclusions.txt	LTP254	ltpFR	4	16	1	TWINE	1529	n/a	0	n/a	n/a	n/a	n/a	n/a
3367.922	n/a	REC_WORD	1683961	wordpools/wasnorm_wordpool_less_exclusions.txt	LTP254	ltpFR	4	16	1	OLIVE	975	n/a	1	n/a	n/a	n/a	n/a	n/a
3369.09	n/a	REC_WORD	1684545	wordpools/wasnorm_wordpool_less_exclusions.txt	LTP254	ltpFR	4	16	1	JOURNAL	760	n/a	0	n/a	n/a	n/a	n/a	n/a
3370.266	n/a	REC_WORD	1685133	wordpools/wasnorm_wordpool_less_exclusions.txt	LTP254	ltpFR	4	16	1	PAPER	1011	n/a	0	n/a	n/a	n/a	n/a	n/a
3386.298	n/a	REC_WORD	1693149	wordpools/wasnorm_wordpool_less_exclusions.txt	LTP254	ltpFR	4	16	1	FARMER	553	n/a	1	n/a	n/a	n/a	n/a	n/a
3404.642	n/a	REC_WORD	1702321	wordpools/wasnorm_wordpool_less_exclusions.txt	LTP254	ltpFR	4	16	1	LETTUCE	814	n/a	1	n/a	n/a	n/a	n/a	n/a
3466.86	n/a	REC_START	1733430	n/a	LTP254	ltpFR	4	n/a	n/a	n/a	n/a	n/a	n/a	n/a	n/a	n/a	n/a	n/a
3467.838	n/a	FFR_REC_WORD	1733919	wordpools/wasnorm_wordpool_less_exclusions.txt	LTP254	ltpFR	4	n/a	1	CROOK	412	n/a	1	n/a	n/a	n/a	n/a	n/a
3468.53	n/a	FFR_REC_WORD	1734265	wordpools/wasnorm_wordpool_less_exclusions.txt	LTP254	ltpFR	4	n/a	1	GOVERNOR	651	n/a	1	n/a	n/a	n/a	n/a	n/a
3469.278	n/a	FFR_REC_WORD	1734639	wordpools/wasnorm_wordpool_less_exclusions.txt	LTP254	ltpFR	4	n/a	1	FIREMAN	569	n/a	1	n/a	n/a	n/a	n/a	n/a
3471.36	n/a	FFR_REC_WORD	1735680	wordpools/wasnorm_wordpool_less_exclusions.txt	LTP254	ltpFR	4	n/a	1	MOTHER	921	n/a	1	n/a	n/a	n/a	n/a	n/a
3472.302	n/a	FFR_REC_WORD	1736151	wordpools/wasnorm_wordpool_less_exclusions.txt	LTP254	ltpFR	4	n/a	1	GUARDIAN	668	n/a	1	n/a	n/a	n/a	n/a	n/a
3473.376	n/a	FFR_REC_WORD	1736688	wordpools/wasnorm_wordpool_less_exclusions.txt	LTP254	ltpFR	4	n/a	0	DAD	433	n/a	1	n/a	n/a	n/a	n/a	n/a
3474.274	n/a	FFR_REC_WORD	1737137	wordpools/wasnorm_wordpool_less_exclusions.txt	LTP254	ltpFR	4	n/a	0	PEDESTRIAN	1038	n/a	1	n/a	n/a	n/a	n/a	n/a
3475.296	n/a	FFR_REC_WORD	1737648	wordpools/wasnorm_wordpool_less_exclusions.txt	LTP254	ltpFR	4	n/a	0	SIDEWALK	1303	n/a	1	n/a	n/a	n/a	n/a	n/a
3476.524	n/a	FFR_REC_WORD	1738262	wordpools/wasnorm_wordpool_less_exclusions.txt	LTP254	ltpFR	4	n/a	n/a	PAVEMENT	1028	n/a	n/a	n/a	n/a	n/a	n/a	n/a
3478.364	n/a	FFR_REC_WORD	1739182	wordpools/wasnorm_wordpool_less_exclusions.txt	LTP254	ltpFR	4	n/a	1	ALLEY	15	n/a	0	n/a	n/a	n/a	n/a	n/a
3479.562	n/a	FFR_REC_WORD	1739781	wordpools/wasnorm_wordpool_less_exclusions.txt	LTP254	ltpFR	4	n/a	0	SWAN	1417	n/a	1	n/a	n/a	n/a	n/a	n/a
3480.754	n/a	FFR_REC_WORD	1740377	wordpools/wasnorm_wordpool_less_exclusions.txt	LTP254	ltpFR	4	n/a	0	OWL	992	n/a	1	n/a	n/a	n/a	n/a	n/a
3481.806	n/a	FFR_REC_WORD	1740903	wordpools/wasnorm_wordpool_less_exclusions.txt	LTP254	ltpFR	4	n/a	0	DOVE	491	n/a	0	n/a	n/a	n/a	n/a	n/a
3482.83	n/a	FFR_REC_WORD	1741415	wordpools/wasnorm_wordpool_less_exclusions.txt	LTP254	ltpFR	4	n/a	0	CHICKEN	297	n/a	0	n/a	n/a	n/a	n/a	n/a
3483.932	n/a	FFR_REC_WORD	1741966	wordpools/wasnorm_wordpool_less_exclusions.txt	LTP254	ltpFR	4	n/a	0	TURKEY	1520	n/a	1	n/a	n/a	n/a	n/a	n/a
3484.988	n/a	FFR_REC_WORD	1742494	wordpools/wasnorm_wordpool_less_exclusions.txt	LTP254	ltpFR	4	n/a	1	PORK	1108	n/a	0	n/a	n/a	n/a	n/a	n/a
3486.232	n/a	FFR_REC_WORD	1743116	wordpools/wasnorm_wordpool_less_exclusions.txt	LTP254	ltpFR	4	n/a	1	LETTUCE	814	n/a	1	n/a	n/a	n/a	n/a	n/a
3488.556	n/a	FFR_REC_WORD	1744278	wordpools/wasnorm_wordpool_less_exclusions.txt	LTP254	ltpFR	4	n/a	1	RAISIN	1163	n/a	0	n/a	n/a	n/a	n/a	n/a
3490.816	n/a	FFR_REC_WORD	1745408	wordpools/wasnorm_wordpool_less_exclusions.txt	LTP254	ltpFR	4	n/a	n/a	CASHEW	253	n/a	n/a	n/a	n/a	n/a	n/a	n/a
3492.612	n/a	FFR_REC_WORD	1746306	wordpools/wasnorm_wordpool_less_exclusions.txt	LTP254	ltpFR	4	n/a	0	ALMOND	18	n/a	0	n/a	n/a	n/a	n/a	n/a
3501.97	n/a	FFR_REC_WORD	1750985	wordpools/wasnorm_wordpool_less_exclusions.txt	LTP254	ltpFR	4	n/a	1	BRIDGE	174	n/a	0	n/a	n/a	n/a	n/a	n/a
3502.794	n/a	FFR_REC_WORD	1751397	wordpools/wasnorm_wordpool_less_exclusions.txt	LTP254	ltpFR	4	n/a	0	CONTINENT	367	n/a	1	n/a	n/a	n/a	n/a	n/a
3504.136	n/a	FFR_REC_WORD	1752068	wordpools/wasnorm_wordpool_less_exclusions.txt	LTP254	ltpFR	4	n/a	1	POND	1101	n/a	0	n/a	n/a	n/a	n/a	n/a
3505.188	n/a	FFR_REC_WORD	1752594	wordpools/wasnorm_wordpool_less_exclusions.txt	LTP254	ltpFR	4	n/a	1	LAKE	796	n/a	0	n/a	n/a	n/a	n/a	n/a
3506.57	n/a	FFR_REC_WORD	1753285	wordpools/wasnorm_wordpool_less_exclusions.txt	LTP254	ltpFR	4	n/a	0	PUDDLE	1140	n/a	1	n/a	n/a	n/a	n/a	n/a
3507.702	n/a	FFR_REC_WORD	1753851	wordpools/wasnorm_wordpool_less_exclusions.txt	LTP254	ltpFR	4	n/a	-1	CREEK	404	n/a	-1	n/a	n/a	n/a	n/a	n/a
3512.442	n/a	FFR_REC_WORD	1756221	wordpools/wasnorm_wordpool_less_exclusions.txt	LTP254	ltpFR	4	n/a	0	BOXER	160	n/a	1	n/a	n/a	n/a	n/a	n/a
3513.668	n/a	FFR_REC_WORD	1756834	wordpools/wasnorm_wordpool_less_exclusions.txt	LTP254	ltpFR	4	n/a	0	PUPPY	1144	n/a	0	n/a	n/a	n/a	n/a	n/a
3518.334	n/a	FFR_REC_WORD	1759167	wordpools/wasnorm_wordpool_less_exclusions.txt	LTP254	ltpFR	4	n/a	1	PRINCESS	1125	n/a	1	n/a	n/a	n/a	n/a	n/a
3519.486	n/a	FFR_REC_WORD	1759743	wordpools/wasnorm_wordpool_less_exclusions.txt	LTP254	ltpFR	4	n/a	0	BRIDE	173	n/a	1	n/a	n/a	n/a	n/a	n/a
3520.658	n/a	FFR_REC_WORD	1760329	wordpools/wasnorm_wordpool_less_exclusions.txt	LTP254	ltpFR	4	n/a	1	GUARD	667	n/a	1	n/a	n/a	n/a	n/a	n/a
3521.826	n/a	FFR_REC_WORD	1760913	wordpools/wasnorm_wordpool_less_exclusions.txt	LTP254	ltpFR	4	n/a	0	PALACE	1006	n/a	1	n/a	n/a	n/a	n/a	n/a
3523.572	n/a	FFR_REC_WORD	1761786	wordpools/wasnorm_wordpool_less_exclusions.txt	LTP254	ltpFR	4	n/a	0	YACHT	1629	n/a	1	n/a	n/a	n/a	n/a	n/a
3524.61	n/a	FFR_REC_WORD	1762305	wordpools/wasnorm_wordpool_less_exclusions.txt	LTP254	ltpFR	4	n/a	1	VESSEL	1558	n/a	0	n/a	n/a	n/a	n/a	n/a
3526.236	n/a	FFR_REC_WORD	1763118	wordpools/wasnorm_wordpool_less_exclusions.txt	LTP254	ltpFR	4	n/a	1	SAILOR	1223	n/a	1	n/a	n/a	n/a	n/a	n/a
3527.688	n/a	FFR_REC_WORD	1763844	wordpools/wasnorm_wordpool_less_exclusions.txt	LTP254	ltpFR	4	n/a	-1	COMMANDER	354	n/a	-1	n/a	n/a	n/a	n/a	n/a
3529.354	n/a	FFR_REC_WORD	1764677	wordpools/wasnorm_wordpool_less_exclusions.txt	LTP254	ltpFR	4	n/a	-1	LIEUTENANT	818	n/a	-1	n/a	n/a	n/a	n/a	n/a
3530.52	n/a	FFR_REC_WORD	1765260	wordpools/wasnorm_wordpool_less_exclusions.txt	LTP254	ltpFR	4	n/a	n/a	SHELLFISH	-1	n/a	n/a	n/a	n/a	n/a	n/a	n/a
3531.812	n/a	FFR_REC_WORD	1765906	wordpools/wasnorm_wordpool_less_exclusions.txt	LTP254	ltpFR	4	n/a	1	HOOK	715	n/a	0	n/a	n/a	n/a	n/a	n/a
3533.658	n/a	FFR_REC_WORD	1766829	wordpools/wasnorm_wordpool_less_exclusions.txt	LTP254	ltpFR	4	n/a	1	PAN	1008	n/a	0	n/a	n/a	n/a	n/a	n/a
3534.86	n/a	FFR_REC_WORD	1767430	wordpools/wasnorm_wordpool_less_exclusions.txt	LTP254	ltpFR	4	n/a	0	POT	1114	n/a	0	n/a	n/a	n/a	n/a	n/a
3536.372	n/a	FFR_REC_WORD	1768186	wordpools/wasnorm_wordpool_less_exclusions.txt	LTP254	ltpFR	4	n/a	1	BAKER	71	n/a	1	n/a	n/a	n/a	n/a	n/a
3537.486	n/a	FFR_REC_WORD	1768743	wordpools/wasnorm_wordpool_less_exclusions.txt	LTP254	ltpFR	4	n/a	-1	BISCUIT	130	n/a	-1	n/a	n/a	n/a	n/a	n/a
3548.4	n/a	FFR_REC_WORD	1774200	wordpools/wasnorm_wordpool_less_exclusions.txt	LTP254	ltpFR	4	n/a	1	NEWSPAPER	948	n/a	0	n/a	n/a	n/a	n/a	n/a
3549.478	n/a	FFR_REC_WORD	1774739	wordpools/wasnorm_wordpool_less_exclusions.txt	LTP254	ltpFR	4	n/a	1	JOURNAL	760	n/a	0	n/a	n/a	n/a	n/a	n/a
3550.436	n/a	FFR_REC_WORD	1775218	wordpools/wasnorm_wordpool_less_exclusions.txt	LTP254	ltpFR	4	n/a	1	MAGAZINE	853	n/a	0	n/a	n/a	n/a	n/a	n/a
3552.198	n/a	FFR_REC_WORD	1776099	wordpools/wasnorm_wordpool_less_exclusions.txt	LTP254	ltpFR	4	n/a	1	PAPER	1011	n/a	0	n/a	n/a	n/a	n/a	n/a
3555.386	n/a	FFR_REC_WORD	1777693	wordpools/wasnorm_wordpool_less_exclusions.txt	LTP254	ltpFR	4	n/a	1	PUBLICATION	1136	n/a	0	n/a	n/a	n/a	n/a	n/a
3558.294	n/a	FFR_REC_WORD	1779147	wordpools/wasnorm_wordpool_less_exclusions.txt	LTP254	ltpFR	4	n/a	-1	NEWSSTAND	949	n/a	-1	n/a	n/a	n/a	n/a	n/a
3562.35	n/a	FFR_REC_WORD	1781175	wordpools/wasnorm_wordpool_less_exclusions.txt	LTP254	ltpFR	4	n/a	-1	ASH	44	n/a	-1	n/a	n/a	n/a	n/a	n/a
3563.492	n/a	FFR_REC_WORD	1781746	wordpools/wasnorm_wordpool_less_exclusions.txt	LTP254	ltpFR	4	n/a	-1	ASHTRAY	45	n/a	-1	n/a	n/a	n/a	n/a	n/a
3565.398	n/a	FFR_REC_WORD	1782699	wordpools/wasnorm_wordpool_less_exclusions.txt	LTP254	ltpFR	4	n/a	-1	CAB	209	n/a	-1	n/a	n/a	n/a	n/a	n/a
3566.6	n/a	FFR_REC_WORD	1783300	wordpools/wasnorm_wordpool_less_exclusions.txt	LTP254	ltpFR	4	n/a	1	TAXI	1438	n/a	0	n/a	n/a	n/a	n/a	n/a
3568.102	n/a	FFR_REC_WORD	1784051	wordpools/wasnorm_wordpool_less_exclusions.txt	LTP254	ltpFR	4	n/a	1	BEETLE	116	n/a	1	n/a	n/a	n/a	n/a	n/a
3569.144	n/a	FFR_REC_WORD	1784572	wordpools/wasnorm_wordpool_less_exclusions.txt	LTP254	ltpFR	4	n/a	-1	MOTOR	922	n/a	-1	n/a	n/a	n/a	n/a	n/a
3570.27	n/a	FFR_REC_WORD	1785135	wordpools/wasnorm_wordpool_less_exclusions.txt	LTP254	ltpFR	4	n/a	1	STALLION	1369	n/a	1	n/a	n/a	n/a	n/a	n/a
3578.402	n/a	FFR_REC_WORD	1789201	wordpools/wasnorm_wordpool_less_exclusions.txt	LTP254	ltpFR	4	n/a	1	RADIATOR	1156	n/a	0	n/a	n/a	n/a	n/a	n/a
3579.704	n/a	FFR_REC_WORD	1789852	wordpools/wasnorm_wordpool_less_exclusions.txt	LTP254	ltpFR	4	n/a	1	DISHWASHER	475	n/a	0	n/a	n/a	n/a	n/a	n/a
3580.996	n/a	FFR_REC_WORD	1790498	wordpools/wasnorm_wordpool_less_exclusions.txt	LTP254	ltpFR	4	n/a	0	OVEN	991	n/a	1	n/a	n/a	n/a	n/a	n/a
3583.118	n/a	FFR_REC_WORD	1791559	wordpools/wasnorm_wordpool_less_exclusions.txt	LTP254	ltpFR	4	n/a	0	DRYER	503	n/a	1	n/a	n/a	n/a	n/a	n/a
3620.15	n/a	FFR_REC_WORD	1810075	wordpools/wasnorm_wordpool_less_exclusions.txt	LTP254	ltpFR	4	n/a	1	GUITAR	670	n/a	0	n/a	n/a	n/a	n/a	n/a
3621.652	n/a	FFR_REC_WORD	1810826	wordpools/wasnorm_wordpool_less_exclusions.txt	LTP254	ltpFR	4	n/a	0	FIDDLE	561	n/a	0	n/a	n/a	n/a	n/a	n/a
3622.942	n/a	FFR_REC_WORD	1811471	wordpools/wasnorm_wordpool_less_exclusions.txt	LTP254	ltpFR	4	n/a	0	TRUMPET	1513	n/a	0	n/a	n/a	n/a	n/a	n/a
3624.574	n/a	FFR_REC_WORD	1812287	wordpools/wasnorm_wordpool_less_exclusions.txt	LTP254	ltpFR	4	n/a	1	BUGLE	189	n/a	0	n/a	n/a	n/a	n/a	n/a
3636.182	n/a	FFR_REC_WORD	1818091	wordpools/wasnorm_wordpool_less_exclusions.txt	LTP254	ltpFR	4	n/a	0	CUE	422	n/a	1	n/a	n/a	n/a	n/a	n/a
3637.59	n/a	FFR_REC_WORD	1818795	wordpools/wasnorm_wordpool_less_exclusions.txt	LTP254	ltpFR	4	n/a	1	GOO	648	n/a	0	n/a	n/a	n/a	n/a	n/a
3639.29	n/a	FFR_REC_WORD	1819645	wordpools/wasnorm_wordpool_less_exclusions.txt	LTP254	ltpFR	4	n/a	-1	IGLOO	734	n/a	-1	n/a	n/a	n/a	n/a	n/a
3640.362	n/a	FFR_REC_WORD	1820181	wordpools/wasnorm_wordpool_less_exclusions.txt	LTP254	ltpFR	4	n/a	-1	CREAM	402	n/a	-1	n/a	n/a	n/a	n/a	n/a
3641.89	n/a	FFR_REC_WORD	1820945	wordpools/wasnorm_wordpool_less_exclusions.txt	LTP254	ltpFR	4	n/a	-1	CUSTARD	429	n/a	-1	n/a	n/a	n/a	n/a	n/a
3645.66	n/a	FFR_REC_WORD	1822830	wordpools/wasnorm_wordpool_less_exclusions.txt	LTP254	ltpFR	4	n/a	-1	COIN	343	n/a	-1	n/a	n/a	n/a	n/a	n/a
3646.834	n/a	FFR_REC_WORD	1823417	wordpools/wasnorm_wordpool_less_exclusions.txt	LTP254	ltpFR	4	n/a	0	DOLLAR	482	n/a	0	n/a	n/a	n/a	n/a	n/a
3648.126	n/a	FFR_REC_WORD	1824063	wordpools/wasnorm_wordpool_less_exclusions.txt	LTP254	ltpFR	4	n/a	-1	OWNER	993	n/a	-1	n/a	n/a	n/a	n/a	n/a
3654.142	n/a	FFR_REC_WORD	1827071	wordpools/wasnorm_wordpool_less_exclusions.txt	LTP254	ltpFR	4	n/a	0	MISTER	901	n/a	1	n/a	n/a	n/a	n/a	n/a
3656.612	n/a	FFR_REC_WORD	1828306	wordpools/wasnorm_wordpool_less_exclusions.txt	LTP254	ltpFR	4	n/a	0	DAD	433	n/a	1	n/a	n/a	n/a	n/a	n/a
3658.602	n/a	FFR_REC_WORD	1829301	wordpools/wasnorm_wordpool_less_exclusions.txt	LTP254	ltpFR	4	n/a	0	CAVE	263	n/a	1	n/a	n/a	n/a	n/a	n/a
3665.352	n/a	FFR_REC_WORD	1832676	wordpools/wasnorm_wordpool_less_exclusions.txt	LTP254	ltpFR	4	n/a	0	CATERPILLAR	259	n/a	0	n/a	n/a	n/a	n/a	n/a
3667.252	n/a	FFR_REC_WORD	1833626	wordpools/wasnorm_wordpool_less_exclusions.txt	LTP254	ltpFR	4	n/a	1	BEETLE	116	n/a	1	n/a	n/a	n/a	n/a	n/a
3668.558	n/a	FFR_REC_WORD	1834279	wordpools/wasnorm_wordpool_less_exclusions.txt	LTP254	ltpFR	4	n/a	0	MOSQUITO	917	n/a	0	n/a	n/a	n/a	n/a	n/a
3669.872	n/a	FFR_REC_WORD	1834936	wordpools/wasnorm_wordpool_less_exclusions.txt	LTP254	ltpFR	4	n/a	1	BUG	187	n/a	1	n/a	n/a	n/a	n/a	n/a
3672.844	n/a	FFR_REC_WORD	1836422	wordpools/wasnorm_wordpool_less_exclusions.txt	LTP254	ltpFR	4	n/a	0	FAIRY	549	n/a	0	n/a	n/a	n/a	n/a	n/a
3674.766	n/a	FFR_REC_WORD	1837383	wordpools/wasnorm_wordpool_less_exclusions.txt	LTP254	ltpFR	4	n/a	0	CRUMB	416	n/a	0	n/a	n/a	n/a	n/a	n/a
3721.55	n/a	FFR_REC_WORD	1860775	wordpools/wasnorm_wordpool_less_exclusions.txt	LTP254	ltpFR	4	n/a	-1	PASSAGE	1019	n/a	-1	n/a	n/a	n/a	n/a	n/a
3723.78	n/a	FFR_REC_WORD	1861890	wordpools/wasnorm_wordpool_less_exclusions.txt	LTP254	ltpFR	4	n/a	-1	LIBRARY	816	n/a	-1	n/a	n/a	n/a	n/a	n/a
3727.886	n/a	FFR_REC_WORD	1863943	wordpools/wasnorm_wordpool_less_exclusions.txt	LTP254	ltpFR	4	n/a	-1	BED	110	n/a	-1	n/a	n/a	n/a	n/a	n/a
3728.832	n/a	FFR_REC_WORD	1864416	wordpools/wasnorm_wordpool_less_exclusions.txt	LTP254	ltpFR	4	n/a	-1	PAD	998	n/a	-1	n/a	n/a	n/a	n/a	n/a
3731.162	n/a	FFR_REC_WORD	1865581	wordpools/wasnorm_wordpool_less_exclusions.txt	LTP254	ltpFR	4	n/a	-1	BUILDER	190	n/a	-1	n/a	n/a	n/a	n/a	n/a
3734.4	n/a	FFR_REC_WORD	1867200	wordpools/wasnorm_wordpool_less_exclusions.txt	LTP254	ltpFR	4	n/a	-1	ROOF	1205	n/a	-1	n/a	n/a	n/a	n/a	n/a
3736.066	n/a	FFR_REC_WORD	1868033	wordpools/wasnorm_wordpool_less_exclusions.txt	LTP254	ltpFR	4	n/a	-1	KITCHEN	778	n/a	-1	n/a	n/a	n/a	n/a	n/a
3761.444	n/a	FFR_REC_WORD	1880722	wordpools/wasnorm_wordpool_less_exclusions.txt	LTP254	ltpFR	4	n/a	1	FLOWER	584	n/a	1	n/a	n/a	n/a	n/a	n/a
3816.694	n/a	REC_START	1908347	n/a	LTP254	ltpFR	4	1	n/a	n/a	n/a	n/a	n/a	n/a	n/a	n/a	n/a	n/a
3816.726	n/a	RECOG_TARGET	1908363	n/a	LTP254	ltpFR	4	1	0	JUPITER	765	5	1	n/a	n/a	n/a	n/a	n/a
3819.546	n/a	RECOG_RESP	1909773	n/a	LTP254	ltpFR	4	1	0	JUPITER	765	n/a	1	n/a	n/a	n/a	n/a	n/a
3821.706	n/a	RECOG_CONF	1910853	n/a	LTP254	ltpFR	4	1	0	JUPITER	765	5	1	n/a	n/a	n/a	n/a	n/a
3823.566	n/a	RECOG_TARGET	1911783	n/a	LTP254	ltpFR	4	1	0	PEDESTRIAN	1038	5	1	n/a	n/a	n/a	n/a	n/a
3824.406	n/a	RECOG_RESP	1912203	n/a	LTP254	ltpFR	4	1	0	PEDESTRIAN	1038	n/a	1	n/a	n/a	n/a	n/a	n/a
3825.678	n/a	RECOG_CONF	1912839	n/a	LTP254	ltpFR	4	1	0	PEDESTRIAN	1038	5	1	n/a	n/a	n/a	n/a	n/a
3827.36	n/a	RECOG_TARGET	1913680	n/a	LTP254	ltpFR	4	1	1	PUBLICATION	1136	5	0	n/a	n/a	n/a	n/a	n/a
3828.258	n/a	RECOG_RESP	1914129	n/a	LTP254	ltpFR	4	1	1	PUBLICATION	1136	n/a	0	n/a	n/a	n/a	n/a	n/a
3829.708	n/a	RECOG_CONF	1914854	n/a	LTP254	ltpFR	4	1	1	PUBLICATION	1136	5	0	n/a	n/a	n/a	n/a	n/a
3831.554	n/a	RECOG_TARGET	1915777	n/a	LTP254	ltpFR	4	1	-1	FOREST	593	4	-1	n/a	n/a	n/a	n/a	n/a
3833.754	n/a	RECOG_RESP	1916877	n/a	LTP254	ltpFR	4	1	-1	FOREST	593	n/a	-1	n/a	n/a	n/a	n/a	n/a
3835.416	n/a	RECOG_CONF	1917708	n/a	LTP254	ltpFR	4	1	-1	FOREST	593	4	-1	n/a	n/a	n/a	n/a	n/a
3837.112	n/a	RECOG_TARGET	1918556	n/a	LTP254	ltpFR	4	1	0	DRYER	503	4	1	n/a	n/a	n/a	n/a	n/a
3838.22	n/a	RECOG_RESP	1919110	n/a	LTP254	ltpFR	4	1	0	DRYER	503	n/a	1	n/a	n/a	n/a	n/a	n/a
3839.406	n/a	RECOG_CONF	1919703	n/a	LTP254	ltpFR	4	1	0	DRYER	503	4	1	n/a	n/a	n/a	n/a	n/a
3841.306	n/a	RECOG_TARGET	1920653	n/a	LTP254	ltpFR	4	1	0	GRASSHOPPER	656	3	0	n/a	n/a	n/a	n/a	n/a
3842.918	n/a	RECOG_RESP	1921459	n/a	LTP254	ltpFR	4	1	0	GRASSHOPPER	656	n/a	0	n/a	n/a	n/a	n/a	n/a
3844.156	n/a	RECOG_CONF	1922078	n/a	LTP254	ltpFR	4	1	0	GRASSHOPPER	656	3	0	n/a	n/a	n/a	n/a	n/a
3846.014	n/a	RECOG_TARGET	1923007	n/a	LTP254	ltpFR	4	1	1	GOAT	644	5	1	n/a	n/a	n/a	n/a	n/a
3846.91	n/a	RECOG_RESP	1923455	n/a	LTP254	ltpFR	4	1	1	GOAT	644	n/a	1	n/a	n/a	n/a	n/a	n/a
3848.116	n/a	RECOG_CONF	1924058	n/a	LTP254	ltpFR	4	1	1	GOAT	644	5	1	n/a	n/a	n/a	n/a	n/a
3849.942	n/a	RECOG_TARGET	1924971	n/a	LTP254	ltpFR	4	1	1	LETTUCE	814	5	1	n/a	n/a	n/a	n/a	n/a
3850.796	n/a	RECOG_RESP	1925398	n/a	LTP254	ltpFR	4	1	1	LETTUCE	814	n/a	1	n/a	n/a	n/a	n/a	n/a
3851.968	n/a	RECOG_CONF	1925984	n/a	LTP254	ltpFR	4	1	1	LETTUCE	814	5	1	n/a	n/a	n/a	n/a	n/a
3853.736	n/a	RECOG_LURE	1926868	n/a	LTP254	ltpFR	4	1	n/a	CRAB	397	1	n/a	n/a	n/a	n/a	n/a	n/a
3857.002	n/a	RECOG_RESP	1928501	n/a	LTP254	ltpFR	4	1	n/a	CRAB	397	n/a	n/a	n/a	n/a	n/a	n/a	n/a
3858.124	n/a	RECOG_CONF	1929062	n/a	LTP254	ltpFR	4	1	n/a	CRAB	397	1	n/a	n/a	n/a	n/a	n/a	n/a
3859.828	n/a	RECOG_LURE	1929914	n/a	LTP254	ltpFR	4	1	n/a	BURGLAR	200	3	n/a	n/a	n/a	n/a	n/a	n/a
3861.622	n/a	RECOG_RESP	1930811	n/a	LTP254	ltpFR	4	1	n/a	BURGLAR	200	n/a	n/a	n/a	n/a	n/a	n/a	n/a
3862.854	n/a	RECOG_CONF	1931427	n/a	LTP254	ltpFR	4	1	n/a	BURGLAR	200	3	n/a	n/a	n/a	n/a	n/a	n/a
3864.488	n/a	RECOG_TARGET	1932244	n/a	LTP254	ltpFR	4	1	0	CHICKEN	297	3	0	n/a	n/a	n/a	n/a	n/a
3865.598	n/a	RECOG_RESP	1932799	n/a	LTP254	ltpFR	4	1	0	CHICKEN	297	n/a	0	n/a	n/a	n/a	n/a	n/a
3866.684	n/a	RECOG_CONF	1933342	n/a	LTP254	ltpFR	4	1	0	CHICKEN	297	3	0	n/a	n/a	n/a	n/a	n/a
3868.482	n/a	RECOG_LURE	1934241	n/a	LTP254	ltpFR	4	1	n/a	ACTOR	5	1	n/a	n/a	n/a	n/a	n/a	n/a
3872.068	n/a	RECOG_RESP	1936034	n/a	LTP254	ltpFR	4	1	n/a	ACTOR	5	n/a	n/a	n/a	n/a	n/a	n/a	n/a
3873.17	n/a	RECOG_CONF	1936585	n/a	LTP254	ltpFR	4	1	n/a	ACTOR	5	1	n/a	n/a	n/a	n/a	n/a	n/a
3874.922	n/a	RECOG_TARGET	1937461	n/a	LTP254	ltpFR	4	1	1	MOTHER	921	4	1	n/a	n/a	n/a	n/a	n/a
3876.598	n/a	RECOG_RESP	1938299	n/a	LTP254	ltpFR	4	1	1	MOTHER	921	n/a	1	n/a	n/a	n/a	n/a	n/a
3877.98	n/a	RECOG_CONF	1938990	n/a	LTP254	ltpFR	4	1	1	MOTHER	921	4	1	n/a	n/a	n/a	n/a	n/a
3880.348	n/a	RECOG_TARGET	1940174	n/a	LTP254	ltpFR	4	1	1	TAXI	1438	5	0	n/a	n/a	n/a	n/a	n/a
3881.198	n/a	RECOG_RESP	1940599	n/a	LTP254	ltpFR	4	1	1	TAXI	1438	n/a	0	n/a	n/a	n/a	n/a	n/a
3882.61	n/a	RECOG_CONF	1941305	n/a	LTP254	ltpFR	4	1	1	TAXI	1438	5	0	n/a	n/a	n/a	n/a	n/a
3884.558	n/a	RECOG_LURE	1942279	n/a	LTP254	ltpFR	4	1	n/a	MARKER	870	4	n/a	n/a	n/a	n/a	n/a	n/a
3886.49	n/a	RECOG_RESP	1943245	n/a	LTP254	ltpFR	4	1	n/a	MARKER	870	n/a	n/a	n/a	n/a	n/a	n/a	n/a
3887.828	n/a	RECOG_CONF	1943914	n/a	LTP254	ltpFR	4	1	n/a	MARKER	870	4	n/a	n/a	n/a	n/a	n/a	n/a
3889.6	n/a	RECOG_LURE	1944800	n/a	LTP254	ltpFR	4	1	n/a	PIPE	1073	2	n/a	n/a	n/a	n/a	n/a	n/a
3892.646	n/a	RECOG_RESP	1946323	n/a	LTP254	ltpFR	4	1	n/a	PIPE	1073	n/a	n/a	n/a	n/a	n/a	n/a	n/a
3893.954	n/a	RECOG_CONF	1946977	n/a	LTP254	ltpFR	4	1	n/a	PIPE	1073	2	n/a	n/a	n/a	n/a	n/a	n/a
3895.826	n/a	RECOG_TARGET	1947913	n/a	LTP254	ltpFR	4	1	1	SILVERWARE	1308	5	0	n/a	n/a	n/a	n/a	n/a
3896.688	n/a	RECOG_RESP	1948344	n/a	LTP254	ltpFR	4	1	1	SILVERWARE	1308	n/a	0	n/a	n/a	n/a	n/a	n/a
3897.904	n/a	RECOG_CONF	1948952	n/a	LTP254	ltpFR	4	1	1	SILVERWARE	1308	5	0	n/a	n/a	n/a	n/a	n/a
3899.62	n/a	RECOG_TARGET	1949810	n/a	LTP254	ltpFR	4	1	0	STRING	1394	4	0	n/a	n/a	n/a	n/a	n/a
3900.834	n/a	RECOG_RESP	1950417	n/a	LTP254	ltpFR	4	1	0	STRING	1394	n/a	0	n/a	n/a	n/a	n/a	n/a
3902.156	n/a	RECOG_CONF	1951078	n/a	LTP254	ltpFR	4	1	0	STRING	1394	4	0	n/a	n/a	n/a	n/a	n/a
3903.764	n/a	RECOG_TARGET	1951882	n/a	LTP254	ltpFR	4	1	-1	CHIME	300	3	-1	n/a	n/a	n/a	n/a	n/a
3904.624	n/a	RECOG_RESP	1952312	n/a	LTP254	ltpFR	4	1	-1	CHIME	300	n/a	-1	n/a	n/a	n/a	n/a	n/a
3905.708	n/a	RECOG_CONF	1952854	n/a	LTP254	ltpFR	4	1	-1	CHIME	300	3	-1	n/a	n/a	n/a	n/a	n/a
3907.524	n/a	RECOG_TARGET	1953762	n/a	LTP254	ltpFR	4	1	-1	ALBUM	14	4	-1	n/a	n/a	n/a	n/a	n/a
3909.02	n/a	RECOG_RESP	1954510	n/a	LTP254	ltpFR	4	1	-1	ALBUM	14	n/a	-1	n/a	n/a	n/a	n/a	n/a
3910.446	n/a	RECOG_CONF	1955223	n/a	LTP254	ltpFR	4	1	-1	ALBUM	14	4	-1	n/a	n/a	n/a	n/a	n/a
3920.328	n/a	REC_START	1960164	n/a	LTP254	ltpFR	4	2	n/a	n/a	n/a	n/a	n/a	n/a	n/a	n/a	n/a	n/a
3920.356	n/a	RECOG_TARGET	1960178	n/a	LTP254	ltpFR	4	2	-1	COIN	343	5	-1	n/a	n/a	n/a	n/a	n/a
3921.604	n/a	RECOG_RESP	1960802	n/a	LTP254	ltpFR	4	2	-1	COIN	343	n/a	-1	n/a	n/a	n/a	n/a	n/a
3922.806	n/a	RECOG_CONF	1961403	n/a	LTP254	ltpFR	4	2	-1	COIN	343	5	-1	n/a	n/a	n/a	n/a	n/a
3925.014	n/a	RECOG_TARGET	1962507	n/a	LTP254	ltpFR	4	2	0	TRUMPET	1513	4	0	n/a	n/a	n/a	n/a	n/a
3925.924	n/a	RECOG_RESP	1962962	n/a	LTP254	ltpFR	4	2	0	TRUMPET	1513	n/a	0	n/a	n/a	n/a	n/a	n/a
3927.736	n/a	RECOG_CONF	1963868	n/a	LTP254	ltpFR	4	2	0	TRUMPET	1513	4	0	n/a	n/a	n/a	n/a	n/a
3929.558	n/a	RECOG_TARGET	1964779	n/a	LTP254	ltpFR	4	2	0	PUPPY	1144	5	0	n/a	n/a	n/a	n/a	n/a
3930.634	n/a	RECOG_RESP	1965317	n/a	LTP254	ltpFR	4	2	0	PUPPY	1144	n/a	0	n/a	n/a	n/a	n/a	n/a
3931.796	n/a	RECOG_CONF	1965898	n/a	LTP254	ltpFR	4	2	0	PUPPY	1144	5	0	n/a	n/a	n/a	n/a	n/a
3933.984	n/a	RECOG_TARGET	1966992	n/a	LTP254	ltpFR	4	2	1	UNICORN	1538	4	0	n/a	n/a	n/a	n/a	n/a
3935.598	n/a	RECOG_RESP	1967799	n/a	LTP254	ltpFR	4	2	1	UNICORN	1538	n/a	0	n/a	n/a	n/a	n/a	n/a
3936.816	n/a	RECOG_CONF	1968408	n/a	LTP254	ltpFR	4	2	1	UNICORN	1538	4	0	n/a	n/a	n/a	n/a	n/a
3938.546	n/a	RECOG_LURE	1969273	n/a	LTP254	ltpFR	4	2	n/a	WRIST	1626	4	n/a	n/a	n/a	n/a	n/a	n/a
3940.612	n/a	RECOG_RESP	1970306	n/a	LTP254	ltpFR	4	2	n/a	WRIST	1626	n/a	n/a	n/a	n/a	n/a	n/a	n/a
3941.714	n/a	RECOG_CONF	1970857	n/a	LTP254	ltpFR	4	2	n/a	WRIST	1626	4	n/a	n/a	n/a	n/a	n/a	n/a
3943.422	n/a	RECOG_TARGET	1971711	n/a	LTP254	ltpFR	4	2	0	TAPE	1433	3	0	n/a	n/a	n/a	n/a	n/a
3944.782	n/a	RECOG_RESP	1972391	n/a	LTP254	ltpFR	4	2	0	TAPE	1433	n/a	0	n/a	n/a	n/a	n/a	n/a
3945.956	n/a	RECOG_CONF	1972978	n/a	LTP254	ltpFR	4	2	0	TAPE	1433	3	0	n/a	n/a	n/a	n/a	n/a
3947.798	n/a	RECOG_LURE	1973899	n/a	LTP254	ltpFR	4	2	n/a	ORANGE	980	4	n/a	n/a	n/a	n/a	n/a	n/a
3949.472	n/a	RECOG_RESP	1974736	n/a	LTP254	ltpFR	4	2	n/a	ORANGE	980	n/a	n/a	n/a	n/a	n/a	n/a	n/a
3951.312	n/a	RECOG_CONF	1975656	n/a	LTP254	ltpFR	4	2	n/a	ORANGE	980	4	n/a	n/a	n/a	n/a	n/a	n/a
3953.006	n/a	RECOG_LURE	1976503	n/a	LTP254	ltpFR	4	2	n/a	FIN	566	2	n/a	n/a	n/a	n/a	n/a	n/a
3956.078	n/a	RECOG_RESP	1978039	n/a	LTP254	ltpFR	4	2	n/a	FIN	566	n/a	n/a	n/a	n/a	n/a	n/a	n/a
3957.488	n/a	RECOG_CONF	1978744	n/a	LTP254	ltpFR	4	2	n/a	FIN	566	2	n/a	n/a	n/a	n/a	n/a	n/a
3959.164	n/a	RECOG_LURE	1979582	n/a	LTP254	ltpFR	4	2	n/a	ROOSTER	1209	5	n/a	n/a	n/a	n/a	n/a	n/a
3960.672	n/a	RECOG_RESP	1980336	n/a	LTP254	ltpFR	4	2	n/a	ROOSTER	1209	n/a	n/a	n/a	n/a	n/a	n/a	n/a
3961.76	n/a	RECOG_CONF	1980880	n/a	LTP254	ltpFR	4	2	n/a	ROOSTER	1209	5	n/a	n/a	n/a	n/a	n/a	n/a
3963.724	n/a	RECOG_TARGET	1981862	n/a	LTP254	ltpFR	4	2	-1	CONTAINER	366	3	-1	n/a	n/a	n/a	n/a	n/a
3965.696	n/a	RECOG_RESP	1982848	n/a	LTP254	ltpFR	4	2	-1	CONTAINER	366	n/a	-1	n/a	n/a	n/a	n/a	n/a
3966.968	n/a	RECOG_CONF	1983484	n/a	LTP254	ltpFR	4	2	-1	CONTAINER	366	3	-1	n/a	n/a	n/a	n/a	n/a
3968.784	n/a	RECOG_LURE	1984392	n/a	LTP254	ltpFR	4	2	n/a	MILITARY	894	5	n/a	n/a	n/a	n/a	n/a	n/a
3969.886	n/a	RECOG_RESP	1984943	n/a	LTP254	ltpFR	4	2	n/a	MILITARY	894	n/a	n/a	n/a	n/a	n/a	n/a	n/a
3971.078	n/a	RECOG_CONF	1985539	n/a	LTP254	ltpFR	4	2	n/a	MILITARY	894	5	n/a	n/a	n/a	n/a	n/a	n/a
3972.712	n/a	RECOG_TARGET	1986356	n/a	LTP254	ltpFR	4	2	0	CUSHION	428	3	1	n/a	n/a	n/a	n/a	n/a
3974.032	n/a	RECOG_RESP	1987016	n/a	LTP254	ltpFR	4	2	0	CUSHION	428	n/a	1	n/a	n/a	n/a	n/a	n/a
3975.178	n/a	RECOG_CONF	1987589	n/a	LTP254	ltpFR	4	2	0	CUSHION	428	3	1	n/a	n/a	n/a	n/a	n/a
3976.788	n/a	RECOG_TARGET	1988394	n/a	LTP254	ltpFR	4	2	-1	BUILDING	191	3	-1	n/a	n/a	n/a	n/a	n/a
3978.606	n/a	RECOG_RESP	1989303	n/a	LTP254	ltpFR	4	2	-1	BUILDING	191	n/a	-1	n/a	n/a	n/a	n/a	n/a
3979.798	n/a	RECOG_CONF	1989899	n/a	LTP254	ltpFR	4	2	-1	BUILDING	191	3	-1	n/a	n/a	n/a	n/a	n/a
3981.582	n/a	RECOG_LURE	1990791	n/a	LTP254	ltpFR	4	2	n/a	HOUND	724	2	n/a	n/a	n/a	n/a	n/a	n/a
3984.244	n/a	RECOG_RESP	1992122	n/a	LTP254	ltpFR	4	2	n/a	HOUND	724	n/a	n/a	n/a	n/a	n/a	n/a	n/a
3985.934	n/a	RECOG_CONF	1992967	n/a	LTP254	ltpFR	4	2	n/a	HOUND	724	2	n/a	n/a	n/a	n/a	n/a	n/a
3987.822	n/a	RECOG_LURE	1993911	n/a	LTP254	ltpFR	4	2	n/a	PIRATE	1074	4	n/a	n/a	n/a	n/a	n/a	n/a
3989.062	n/a	RECOG_RESP	1994531	n/a	LTP254	ltpFR	4	2	n/a	PIRATE	1074	n/a	n/a	n/a	n/a	n/a	n/a	n/a
3990.204	n/a	RECOG_CONF	1995102	n/a	LTP254	ltpFR	4	2	n/a	PIRATE	1074	4	n/a	n/a	n/a	n/a	n/a	n/a
3992.064	n/a	RECOG_TARGET	1996032	n/a	LTP254	ltpFR	4	2	-1	RUNNER	1218	3	-1	n/a	n/a	n/a	n/a	n/a
3993.412	n/a	RECOG_RESP	1996706	n/a	LTP254	ltpFR	4	2	-1	RUNNER	1218	n/a	-1	n/a	n/a	n/a	n/a	n/a
3994.854	n/a	RECOG_CONF	1997427	n/a	LTP254	ltpFR	4	2	-1	RUNNER	1218	3	-1	n/a	n/a	n/a	n/a	n/a
3996.658	n/a	RECOG_TARGET	1998329	n/a	LTP254	ltpFR	4	2	1	RELATIVE	1182	4	1	n/a	n/a	n/a	n/a	n/a
3998.242	n/a	RECOG_RESP	1999121	n/a	LTP254	ltpFR	4	2	1	RELATIVE	1182	n/a	1	n/a	n/a	n/a	n/a	n/a
3999.644	n/a	RECOG_CONF	1999822	n/a	LTP254	ltpFR	4	2	1	RELATIVE	1182	4	1	n/a	n/a	n/a	n/a	n/a
4001.552	n/a	RECOG_TARGET	2000776	n/a	LTP254	ltpFR	4	2	-1	RING	1193	3	-1	n/a	n/a	n/a	n/a	n/a
4003.516	n/a	RECOG_RESP	2001758	n/a	LTP254	ltpFR	4	2	-1	RING	1193	n/a	-1	n/a	n/a	n/a	n/a	n/a
4004.792	n/a	RECOG_CONF	2002396	n/a	LTP254	ltpFR	4	2	-1	RING	1193	3	-1	n/a	n/a	n/a	n/a	n/a
4006.512	n/a	RECOG_LURE	2003256	n/a	LTP254	ltpFR	4	2	n/a	STEM	1376	3	n/a	n/a	n/a	n/a	n/a	n/a
4008.968	n/a	RECOG_RESP	2004484	n/a	LTP254	ltpFR	4	2	n/a	STEM	1376	n/a	n/a	n/a	n/a	n/a	n/a	n/a
4010.07	n/a	RECOG_CONF	2005035	n/a	LTP254	ltpFR	4	2	n/a	STEM	1376	3	n/a	n/a	n/a	n/a	n/a	n/a
4011.904	n/a	RECOG_TARGET	2005952	n/a	LTP254	ltpFR	4	2	0	SILK	1307	4	0	n/a	n/a	n/a	n/a	n/a
4012.934	n/a	RECOG_RESP	2006467	n/a	LTP254	ltpFR	4	2	0	SILK	1307	n/a	0	n/a	n/a	n/a	n/a	n/a
4014.27	n/a	RECOG_CONF	2007135	n/a	LTP254	ltpFR	4	2	0	SILK	1307	4	0	n/a	n/a	n/a	n/a	n/a
4025.292	n/a	REC_START	2012646	n/a	LTP254	ltpFR	4	3	n/a	n/a	n/a	n/a	n/a	n/a	n/a	n/a	n/a	n/a
4025.334	n/a	RECOG_LURE	2012667	n/a	LTP254	ltpFR	4	3	n/a	COACH	331	2	n/a	n/a	n/a	n/a	n/a	n/a
4030.35	n/a	RECOG_RESP	2015175	n/a	LTP254	ltpFR	4	3	n/a	COACH	331	n/a	n/a	n/a	n/a	n/a	n/a	n/a
4031.622	n/a	RECOG_CONF	2015811	n/a	LTP254	ltpFR	4	3	n/a	COACH	331	2	n/a	n/a	n/a	n/a	n/a	n/a
4033.588	n/a	RECOG_LURE	2016794	n/a	LTP254	ltpFR	4	3	n/a	EDITOR	516	2	n/a	n/a	n/a	n/a	n/a	n/a
4035.748	n/a	RECOG_RESP	2017874	n/a	LTP254	ltpFR	4	3	n/a	EDITOR	516	n/a	n/a	n/a	n/a	n/a	n/a	n/a
4037.48	n/a	RECOG_CONF	2018740	n/a	LTP254	ltpFR	4	3	n/a	EDITOR	516	2	n/a	n/a	n/a	n/a	n/a	n/a
4039.296	n/a	RECOG_LURE	2019648	n/a	LTP254	ltpFR	4	3	n/a	KEG	770	2	n/a	n/a	n/a	n/a	n/a	n/a
4042.364	n/a	RECOG_RESP	2021182	n/a	LTP254	ltpFR	4	3	n/a	KEG	770	n/a	n/a	n/a	n/a	n/a	n/a	n/a
4043.686	n/a	RECOG_CONF	2021843	n/a	LTP254	ltpFR	4	3	n/a	KEG	770	2	n/a	n/a	n/a	n/a	n/a	n/a
4045.67	n/a	RECOG_TARGET	2022835	n/a	LTP254	ltpFR	4	3	-1	BUILDER	190	4	-1	n/a	n/a	n/a	n/a	n/a
4046.604	n/a	RECOG_RESP	2023302	n/a	LTP254	ltpFR	4	3	-1	BUILDER	190	n/a	-1	n/a	n/a	n/a	n/a	n/a
4047.796	n/a	RECOG_CONF	2023898	n/a	LTP254	ltpFR	4	3	-1	BUILDER	190	4	-1	n/a	n/a	n/a	n/a	n/a
4049.382	n/a	RECOG_LURE	2024691	n/a	LTP254	ltpFR	4	3	n/a	WEB	1598	1	n/a	n/a	n/a	n/a	n/a	n/a
4052.39	n/a	RECOG_RESP	2026195	n/a	LTP254	ltpFR	4	3	n/a	WEB	1598	n/a	n/a	n/a	n/a	n/a	n/a	n/a
4053.524	n/a	RECOG_CONF	2026762	n/a	LTP254	ltpFR	4	3	n/a	WEB	1598	1	n/a	n/a	n/a	n/a	n/a	n/a
4055.19	n/a	RECOG_LURE	2027595	n/a	LTP254	ltpFR	4	3	n/a	PLAID	1080	4	n/a	n/a	n/a	n/a	n/a	n/a
4056.322	n/a	RECOG_RESP	2028161	n/a	LTP254	ltpFR	4	3	n/a	PLAID	1080	n/a	n/a	n/a	n/a	n/a	n/a	n/a
4057.504	n/a	RECOG_CONF	2028752	n/a	LTP254	ltpFR	4	3	n/a	PLAID	1080	4	n/a	n/a	n/a	n/a	n/a	n/a
4059.216	n/a	RECOG_LURE	2029608	n/a	LTP254	ltpFR	4	3	n/a	SNOB	1335	4	n/a	n/a	n/a	n/a	n/a	n/a
4061.59	n/a	RECOG_RESP	2030795	n/a	LTP254	ltpFR	4	3	n/a	SNOB	1335	n/a	n/a	n/a	n/a	n/a	n/a	n/a
4062.742	n/a	RECOG_CONF	2031371	n/a	LTP254	ltpFR	4	3	n/a	SNOB	1335	4	n/a	n/a	n/a	n/a	n/a	n/a
4064.874	n/a	RECOG_LURE	2032437	n/a	LTP254	ltpFR	4	3	n/a	ADULT	8	3	n/a	n/a	n/a	n/a	n/a	n/a
4068.944	n/a	RECOG_RESP	2034472	n/a	LTP254	ltpFR	4	3	n/a	ADULT	8	n/a	n/a	n/a	n/a	n/a	n/a	n/a
4070.236	n/a	RECOG_CONF	2035118	n/a	LTP254	ltpFR	4	3	n/a	ADULT	8	3	n/a	n/a	n/a	n/a	n/a	n/a
4072.098	n/a	RECOG_TARGET	2036049	n/a	LTP254	ltpFR	4	3	0	DRILL	497	4	0	n/a	n/a	n/a	n/a	n/a
4073.554	n/a	RECOG_RESP	2036777	n/a	LTP254	ltpFR	4	3	0	DRILL	497	n/a	0	n/a	n/a	n/a	n/a	n/a
4074.776	n/a	RECOG_CONF	2037388	n/a	LTP254	ltpFR	4	3	0	DRILL	497	4	0	n/a	n/a	n/a	n/a	n/a
4076.492	n/a	RECOG_LURE	2038246	n/a	LTP254	ltpFR	4	3	n/a	PAINT	1003	1	n/a	n/a	n/a	n/a	n/a	n/a
4078.432	n/a	RECOG_RESP	2039216	n/a	LTP254	ltpFR	4	3	n/a	PAINT	1003	n/a	n/a	n/a	n/a	n/a	n/a	n/a
4079.884	n/a	RECOG_CONF	2039942	n/a	LTP254	ltpFR	4	3	n/a	PAINT	1003	1	n/a	n/a	n/a	n/a	n/a	n/a
4081.7	n/a	RECOG_TARGET	2040850	n/a	LTP254	ltpFR	4	3	-1	GYMNAST	675	4	-1	n/a	n/a	n/a	n/a	n/a
4082.612	n/a	RECOG_RESP	2041306	n/a	LTP254	ltpFR	4	3	-1	GYMNAST	675	n/a	-1	n/a	n/a	n/a	n/a	n/a
4083.736	n/a	RECOG_CONF	2041868	n/a	LTP254	ltpFR	4	3	-1	GYMNAST	675	4	-1	n/a	n/a	n/a	n/a	n/a
4085.494	n/a	RECOG_TARGET	2042747	n/a	LTP254	ltpFR	4	3	0	SINK	1309	3	1	n/a	n/a	n/a	n/a	n/a
4086.648	n/a	RECOG_RESP	2043324	n/a	LTP254	ltpFR	4	3	0	SINK	1309	n/a	1	n/a	n/a	n/a	n/a	n/a
4087.846	n/a	RECOG_CONF	2043923	n/a	LTP254	ltpFR	4	3	0	SINK	1309	3	1	n/a	n/a	n/a	n/a	n/a
4089.572	n/a	RECOG_LURE	2044786	n/a	LTP254	ltpFR	4	3	n/a	KID	775	5	n/a	n/a	n/a	n/a	n/a	n/a
4090.84	n/a	RECOG_RESP	2045420	n/a	LTP254	ltpFR	4	3	n/a	KID	775	n/a	n/a	n/a	n/a	n/a	n/a	n/a
4091.966	n/a	RECOG_CONF	2045983	n/a	LTP254	ltpFR	4	3	n/a	KID	775	5	n/a	n/a	n/a	n/a	n/a	n/a
4093.55	n/a	RECOG_TARGET	2046775	n/a	LTP254	ltpFR	4	3	0	BRIDE	173	5	1	n/a	n/a	n/a	n/a	n/a
4094.75	n/a	RECOG_RESP	2047375	n/a	LTP254	ltpFR	4	3	0	BRIDE	173	n/a	1	n/a	n/a	n/a	n/a	n/a
4095.968	n/a	RECOG_CONF	2047984	n/a	LTP254	ltpFR	4	3	0	BRIDE	173	5	1	n/a	n/a	n/a	n/a	n/a
4097.594	n/a	RECOG_TARGET	2048797	n/a	LTP254	ltpFR	4	3	1	STAFF	1365	4	1	n/a	n/a	n/a	n/a	n/a
4098.692	n/a	RECOG_RESP	2049346	n/a	LTP254	ltpFR	4	3	1	STAFF	1365	n/a	1	n/a	n/a	n/a	n/a	n/a
4099.938	n/a	RECOG_CONF	2049969	n/a	LTP254	ltpFR	4	3	1	STAFF	1365	4	1	n/a	n/a	n/a	n/a	n/a
4101.67	n/a	RECOG_TARGET	2050835	n/a	LTP254	ltpFR	4	3	1	GUARDIAN	668	5	1	n/a	n/a	n/a	n/a	n/a
4102.492	n/a	RECOG_RESP	2051246	n/a	LTP254	ltpFR	4	3	1	GUARDIAN	668	n/a	1	n/a	n/a	n/a	n/a	n/a
4103.65	n/a	RECOG_CONF	2051825	n/a	LTP254	ltpFR	4	3	1	GUARDIAN	668	5	1	n/a	n/a	n/a	n/a	n/a
4105.348	n/a	RECOG_TARGET	2052674	n/a	LTP254	ltpFR	4	3	-1	ENGINE	535	4	-1	n/a	n/a	n/a	n/a	n/a
4107.098	n/a	RECOG_RESP	2053549	n/a	LTP254	ltpFR	4	3	-1	ENGINE	535	n/a	-1	n/a	n/a	n/a	n/a	n/a
4108.27	n/a	RECOG_CONF	2054135	n/a	LTP254	ltpFR	4	3	-1	ENGINE	535	4	-1	n/a	n/a	n/a	n/a	n/a
4110.074	n/a	RECOG_TARGET	2055037	n/a	LTP254	ltpFR	4	3	-1	IGLOO	734	5	-1	n/a	n/a	n/a	n/a	n/a
4110.904	n/a	RECOG_RESP	2055452	n/a	LTP254	ltpFR	4	3	-1	IGLOO	734	n/a	-1	n/a	n/a	n/a	n/a	n/a
4112.042	n/a	RECOG_CONF	2056021	n/a	LTP254	ltpFR	4	3	-1	IGLOO	734	5	-1	n/a	n/a	n/a	n/a	n/a
4113.702	n/a	RECOG_TARGET	2056851	n/a	LTP254	ltpFR	4	3	0	CAT	257	3	0	n/a	n/a	n/a	n/a	n/a
4116.472	n/a	RECOG_RESP	2058236	n/a	LTP254	ltpFR	4	3	0	CAT	257	n/a	0	n/a	n/a	n/a	n/a	n/a
4117.648	n/a	RECOG_CONF	2058824	n/a	LTP254	ltpFR	4	3	0	CAT	257	3	0	n/a	n/a	n/a	n/a	n/a
4119.328	n/a	RECOG_TARGET	2059664	n/a	LTP254	ltpFR	4	3	-1	CANAL	226	4	-1	n/a	n/a	n/a	n/a	n/a
4120.292	n/a	RECOG_RESP	2060146	n/a	LTP254	ltpFR	4	3	-1	CANAL	226	n/a	-1	n/a	n/a	n/a	n/a	n/a
4121.5	n/a	RECOG_CONF	2060750	n/a	LTP254	ltpFR	4	3	-1	CANAL	226	4	-1	n/a	n/a	n/a	n/a	n/a
4135.506	n/a	REC_START	2067753	n/a	LTP254	ltpFR	4	4	n/a	n/a	n/a	n/a	n/a	n/a	n/a	n/a	n/a	n/a
4135.536	n/a	RECOG_TARGET	2067768	n/a	LTP254	ltpFR	4	4	0	FRAME	600	4	0	n/a	n/a	n/a	n/a	n/a
4137.542	n/a	RECOG_RESP	2068771	n/a	LTP254	ltpFR	4	4	0	FRAME	600	n/a	0	n/a	n/a	n/a	n/a	n/a
4139.084	n/a	RECOG_CONF	2069542	n/a	LTP254	ltpFR	4	4	0	FRAME	600	4	0	n/a	n/a	n/a	n/a	n/a
4141.18	n/a	RECOG_TARGET	2070590	n/a	LTP254	ltpFR	4	4	1	STAGE	1366	5	0	n/a	n/a	n/a	n/a	n/a
4142.152	n/a	RECOG_RESP	2071076	n/a	LTP254	ltpFR	4	4	1	STAGE	1366	n/a	0	n/a	n/a	n/a	n/a	n/a
4143.254	n/a	RECOG_CONF	2071627	n/a	LTP254	ltpFR	4	4	1	STAGE	1366	5	0	n/a	n/a	n/a	n/a	n/a
4144.89	n/a	RECOG_TARGET	2072445	n/a	LTP254	ltpFR	4	4	-1	SPATULA	1348	5	-1	n/a	n/a	n/a	n/a	n/a
4145.978	n/a	RECOG_RESP	2072989	n/a	LTP254	ltpFR	4	4	-1	SPATULA	1348	n/a	-1	n/a	n/a	n/a	n/a	n/a
4147.174	n/a	RECOG_CONF	2073587	n/a	LTP254	ltpFR	4	4	-1	SPATULA	1348	5	-1	n/a	n/a	n/a	n/a	n/a
4148.934	n/a	RECOG_TARGET	2074467	n/a	LTP254	ltpFR	4	4	0	PECAN	1036	3	0	n/a	n/a	n/a	n/a	n/a
4150.802	n/a	RECOG_RESP	2075401	n/a	LTP254	ltpFR	4	4	0	PECAN	1036	n/a	0	n/a	n/a	n/a	n/a	n/a
4151.934	n/a	RECOG_CONF	2075967	n/a	LTP254	ltpFR	4	4	0	PECAN	1036	3	0	n/a	n/a	n/a	n/a	n/a
4153.71	n/a	RECOG_LURE	2076855	n/a	LTP254	ltpFR	4	4	n/a	DORM	488	4	n/a	n/a	n/a	n/a	n/a	n/a
4155.61	n/a	RECOG_RESP	2077805	n/a	LTP254	ltpFR	4	4	n/a	DORM	488	n/a	n/a	n/a	n/a	n/a	n/a	n/a
4156.852	n/a	RECOG_CONF	2078426	n/a	LTP254	ltpFR	4	4	n/a	DORM	488	4	n/a	n/a	n/a	n/a	n/a	n/a
4158.686	n/a	RECOG_TARGET	2079343	n/a	LTP254	ltpFR	4	4	1	COW	393	3	1	n/a	n/a	n/a	n/a	n/a
4160.69	n/a	RECOG_RESP	2080345	n/a	LTP254	ltpFR	4	4	1	COW	393	n/a	1	n/a	n/a	n/a	n/a	n/a
4162.13	n/a	RECOG_CONF	2081065	n/a	LTP254	ltpFR	4	4	1	COW	393	3	1	n/a	n/a	n/a	n/a	n/a
4163.862	n/a	RECOG_LURE	2081931	n/a	LTP254	ltpFR	4	4	n/a	HAMBURGER	679	5	n/a	n/a	n/a	n/a	n/a	n/a
4165.278	n/a	RECOG_RESP	2082639	n/a	LTP254	ltpFR	4	4	n/a	HAMBURGER	679	n/a	n/a	n/a	n/a	n/a	n/a	n/a
4166.442	n/a	RECOG_CONF	2083221	n/a	LTP254	ltpFR	4	4	n/a	HAMBURGER	679	5	n/a	n/a	n/a	n/a	n/a	n/a
4168.388	n/a	RECOG_LURE	2084194	n/a	LTP254	ltpFR	4	4	n/a	CAPE	237	1	n/a	n/a	n/a	n/a	n/a	n/a
