mstime	trial_type	stim_file	subject	experiment	session	trial	task	item_name	item_num	recog_resp	recog_conf	resp	color_r	color_g	color_b	case	font
0	SESS_START	n/a	LTP275	ltpFR	2	n/a	n/a	n/a	n/a	0	3	n/a	n/a	n/a	n/a	n/a	n/a
93331	WORD	wordpools/wasnorm_wordpool_less_exclusions.txt	LTP275	ltpFR	2	1	0	TYPIST	1532	1	n/a	0	0.57763671875	0.412841796875	1	upper	amplitud.ttf
97457	WORD	wordpools/wasnorm_wordpool_less_exclusions.txt	LTP275	ltpFR	2	1	0	BOSS	152	n/a	n/a	1	0.57763671875	0.412841796875	1	upper	amplitud.ttf
101472	WORD	wordpools/wasnorm_wordpool_less_exclusions.txt	LTP275	ltpFR	2	1	0	RUST	1219	n/a	n/a	0	0.57763671875	0.412841796875	1	upper	amplitud.ttf
105627	WORD	wordpools/wasnorm_wordpool_less_exclusions.txt	LTP275	ltpFR	2	1	1	BOX	159	n/a	n/a	0	0.422607421875	0.5869140625	0	lower	zerothre.ttf
109503	WORD	wordpools/wasnorm_wordpool_less_exclusions.txt	LTP275	ltpFR	2	1	1	HEDGE	699	n/a	n/a	1	0.422607421875	0.5869140625	0	lower	zerothre.ttf
113434	WORD	wordpools/wasnorm_wordpool_less_exclusions.txt	LTP275	ltpFR	2	1	1	VEIN	1554	n/a	n/a	1	0.422607421875	0.5869140625	0	lower	zerothre.ttf
117522	WORD	wordpools/wasnorm_wordpool_less_exclusions.txt	LTP275	ltpFR	2	1	1	BIKE	125	n/a	n/a	0	0.422607421875	0.5869140625	0	lower	zerothre.ttf
121665	WORD	wordpools/wasnorm_wordpool_less_exclusions.txt	LTP275	ltpFR	2	1	0	DRIVER	499	n/a	n/a	1	0.57763671875	0.412841796875	1	upper	amplitud.ttf
125569	WORD	wordpools/wasnorm_wordpool_less_exclusions.txt	LTP275	ltpFR	2	1	0	COBRA	336	n/a	n/a	0	0.57763671875	0.412841796875	1	upper	amplitud.ttf
129779	WORD	wordpools/wasnorm_wordpool_less_exclusions.txt	LTP275	ltpFR	2	1	1	ENEMY	534	n/a	n/a	1	0.422607421875	0.5869140625	0	lower	zerothre.ttf
133917	WORD	wordpools/wasnorm_wordpool_less_exclusions.txt	LTP275	ltpFR	2	1	1	FELLOW	558	n/a	n/a	1	0.422607421875	0.5869140625	0	lower	zerothre.ttf
138083	WORD	wordpools/wasnorm_wordpool_less_exclusions.txt	LTP275	ltpFR	2	1	1	EYE	545	n/a	n/a	1	0.422607421875	0.5869140625	0	lower	zerothre.ttf
142042	WORD	wordpools/wasnorm_wordpool_less_exclusions.txt	LTP275	ltpFR	2	1	1	STUDENT	1395	n/a	n/a	1	0.422607421875	0.5869140625	0	lower	zerothre.ttf
146080	WORD	wordpools/wasnorm_wordpool_less_exclusions.txt	LTP275	ltpFR	2	1	0	CAR	241	n/a	n/a	1	0.57763671875	0.412841796875	1	upper	amplitud.ttf
150112	WORD	wordpools/wasnorm_wordpool_less_exclusions.txt	LTP275	ltpFR	2	1	0	PACKAGE	997	n/a	n/a	1	0.57763671875	0.412841796875	1	upper	amplitud.ttf
154043	WORD	wordpools/wasnorm_wordpool_less_exclusions.txt	LTP275	ltpFR	2	1	0	TECHNICIAN	1443	n/a	n/a	1	0.57763671875	0.412841796875	1	upper	amplitud.ttf
159932	REC_START	n/a	LTP275	ltpFR	2	1	n/a	n/a	n/a	n/a	n/a	n/a	n/a	n/a	n/a	n/a	n/a
160852	REC_WORD	wordpools/wasnorm_wordpool_less_exclusions.txt	LTP275	ltpFR	2	1	0	TECHNICIAN	1443	n/a	n/a	1	n/a	n/a	n/a	n/a	n/a
162117	REC_WORD	wordpools/wasnorm_wordpool_less_exclusions.txt	LTP275	ltpFR	2	1	0	COBRA	336	n/a	n/a	0	n/a	n/a	n/a	n/a	n/a
163627	REC_WORD	wordpools/wasnorm_wordpool_less_exclusions.txt	LTP275	ltpFR	2	1	0	TYPIST	1532	n/a	n/a	0	n/a	n/a	n/a	n/a	n/a
164990	REC_WORD	wordpools/wasnorm_wordpool_less_exclusions.txt	LTP275	ltpFR	2	1	0	BOSS	152	n/a	n/a	1	n/a	n/a	n/a	n/a	n/a
166333	REC_WORD	wordpools/wasnorm_wordpool_less_exclusions.txt	LTP275	ltpFR	2	1	1	VEIN	1554	n/a	n/a	1	n/a	n/a	n/a	n/a	n/a
167796	REC_WORD	wordpools/wasnorm_wordpool_less_exclusions.txt	LTP275	ltpFR	2	1	1	BIKE	125	n/a	n/a	0	n/a	n/a	n/a	n/a	n/a
177736	REC_WORD	wordpools/wasnorm_wordpool_less_exclusions.txt	LTP275	ltpFR	2	1	0	CAR	241	n/a	n/a	1	n/a	n/a	n/a	n/a	n/a
189237	REC_WORD	wordpools/wasnorm_wordpool_less_exclusions.txt	LTP275	ltpFR	2	1	1	HEDGE	699	n/a	n/a	1	n/a	n/a	n/a	n/a	n/a
192263	REC_WORD	wordpools/wasnorm_wordpool_less_exclusions.txt	LTP275	ltpFR	2	1	1	STUDENT	1395	n/a	n/a	1	n/a	n/a	n/a	n/a	n/a
198404	REC_WORD	wordpools/wasnorm_wordpool_less_exclusions.txt	LTP275	ltpFR	2	1	1	ENEMY	534	n/a	n/a	1	n/a	n/a	n/a	n/a	n/a
243675	WORD	wordpools/wasnorm_wordpool_less_exclusions.txt	LTP275	ltpFR	2	2	1	SUPERMARKET	1409	n/a	n/a	0	0.422607421875	0.5869140625	0	lower	zerothre.ttf
247791	WORD	wordpools/wasnorm_wordpool_less_exclusions.txt	LTP275	ltpFR	2	2	1	SCROLL	1257	n/a	n/a	0	0.422607421875	0.5869140625	0	lower	zerothre.ttf
251839	WORD	wordpools/wasnorm_wordpool_less_exclusions.txt	LTP275	ltpFR	2	2	1	NAPKIN	937	n/a	n/a	0	0.422607421875	0.5869140625	0	lower	zerothre.ttf
255776	WORD	wordpools/wasnorm_wordpool_less_exclusions.txt	LTP275	ltpFR	2	2	1	COMPANION	357	n/a	n/a	1	0.422607421875	0.5869140625	0	lower	zerothre.ttf
259802	WORD	wordpools/wasnorm_wordpool_less_exclusions.txt	LTP275	ltpFR	2	2	0	MOOSE	915	n/a	n/a	1	0.57763671875	0.412841796875	1	upper	amplitud.ttf
264018	WORD	wordpools/wasnorm_wordpool_less_exclusions.txt	LTP275	ltpFR	2	2	0	POPE	1105	n/a	n/a	1	0.57763671875	0.412841796875	1	upper	amplitud.ttf
268219	WORD	wordpools/wasnorm_wordpool_less_exclusions.txt	LTP275	ltpFR	2	2	0	PREACHER	1119	n/a	n/a	1	0.57763671875	0.412841796875	1	upper	amplitud.ttf
272389	WORD	wordpools/wasnorm_wordpool_less_exclusions.txt	LTP275	ltpFR	2	2	0	HOME	712	n/a	n/a	1	0.57763671875	0.412841796875	1	upper	amplitud.ttf
276549	WORD	wordpools/wasnorm_wordpool_less_exclusions.txt	LTP275	ltpFR	2	2	0	LUMBER	848	n/a	n/a	1	0.57763671875	0.412841796875	1	upper	amplitud.ttf
280664	WORD	wordpools/wasnorm_wordpool_less_exclusions.txt	LTP275	ltpFR	2	2	0	GLOVE	642	n/a	n/a	0	0.57763671875	0.412841796875	1	upper	amplitud.ttf
284652	WORD	wordpools/wasnorm_wordpool_less_exclusions.txt	LTP275	ltpFR	2	2	1	PORPOISE	1109	n/a	n/a	1	0.422607421875	0.5869140625	0	lower	zerothre.ttf
288617	WORD	wordpools/wasnorm_wordpool_less_exclusions.txt	LTP275	ltpFR	2	2	1	SEAGULL	1261	n/a	n/a	1	0.422607421875	0.5869140625	0	lower	zerothre.ttf
292799	WORD	wordpools/wasnorm_wordpool_less_exclusions.txt	LTP275	ltpFR	2	2	1	TOENAIL	1474	n/a	n/a	1	0.422607421875	0.5869140625	0	lower	zerothre.ttf
296692	WORD	wordpools/wasnorm_wordpool_less_exclusions.txt	LTP275	ltpFR	2	2	1	MARKET	871	n/a	n/a	0	0.422607421875	0.5869140625	0	lower	zerothre.ttf
300545	WORD	wordpools/wasnorm_wordpool_less_exclusions.txt	LTP275	ltpFR	2	2	0	ROOSTER	1209	n/a	n/a	1	0.57763671875	0.412841796875	1	upper	amplitud.ttf
304744	WORD	wordpools/wasnorm_wordpool_less_exclusions.txt	LTP275	ltpFR	2	2	0	MONGOOSE	909	n/a	n/a	1	0.57763671875	0.412841796875	1	upper	amplitud.ttf
310768	REC_START	n/a	LTP275	ltpFR	2	2	n/a	n/a	n/a	n/a	n/a	n/a	n/a	n/a	n/a	n/a	n/a
311729	REC_WORD	wordpools/wasnorm_wordpool_less_exclusions.txt	LTP275	ltpFR	2	2	0	MONGOOSE	909	n/a	n/a	1	n/a	n/a	n/a	n/a	n/a
312929	REC_WORD	wordpools/wasnorm_wordpool_less_exclusions.txt	LTP275	ltpFR	2	2	0	ROOSTER	1209	n/a	n/a	1	n/a	n/a	n/a	n/a	n/a
314899	REC_WORD	wordpools/wasnorm_wordpool_less_exclusions.txt	LTP275	ltpFR	2	2	1	SCROLL	1257	n/a	n/a	0	n/a	n/a	n/a	n/a	n/a
316234	REC_WORD	wordpools/wasnorm_wordpool_less_exclusions.txt	LTP275	ltpFR	2	2	1	NAPKIN	937	n/a	n/a	0	n/a	n/a	n/a	n/a	n/a
317615	REC_WORD	wordpools/wasnorm_wordpool_less_exclusions.txt	LTP275	ltpFR	2	2	0	POPE	1105	n/a	n/a	1	n/a	n/a	n/a	n/a	n/a
319243	REC_WORD	wordpools/wasnorm_wordpool_less_exclusions.txt	LTP275	ltpFR	2	2	0	PREACHER	1119	n/a	n/a	1	n/a	n/a	n/a	n/a	n/a
322945	REC_WORD	wordpools/wasnorm_wordpool_less_exclusions.txt	LTP275	ltpFR	2	2	0	GLOVE	642	n/a	n/a	0	n/a	n/a	n/a	n/a	n/a
327860	REC_WORD	wordpools/wasnorm_wordpool_less_exclusions.txt	LTP275	ltpFR	2	2	0	MOOSE	915	n/a	n/a	1	n/a	n/a	n/a	n/a	n/a
330443	REC_WORD	wordpools/wasnorm_wordpool_less_exclusions.txt	LTP275	ltpFR	2	2	1	MARKET	871	n/a	n/a	0	n/a	n/a	n/a	n/a	n/a
391683	WORD	wordpools/wasnorm_wordpool_less_exclusions.txt	LTP275	ltpFR	2	3	-1	BLUEPRINT	142	n/a	n/a	-1	1.0	1.0	1	upper	Verdana.ttf
395547	WORD	wordpools/wasnorm_wordpool_less_exclusions.txt	LTP275	ltpFR	2	3	-1	NEWSSTAND	949	n/a	n/a	-1	1.0	1.0	1	upper	Verdana.ttf
399680	WORD	wordpools/wasnorm_wordpool_less_exclusions.txt	LTP275	ltpFR	2	3	-1	NOVEL	960	n/a	n/a	-1	1.0	1.0	1	upper	Verdana.ttf
403745	WORD	wordpools/wasnorm_wordpool_less_exclusions.txt	LTP275	ltpFR	2	3	-1	COB	334	n/a	n/a	-1	1.0	1.0	1	upper	Verdana.ttf
407582	WORD	wordpools/wasnorm_wordpool_less_exclusions.txt	LTP275	ltpFR	2	3	-1	MUG	930	n/a	n/a	-1	1.0	1.0	1	upper	Verdana.ttf
411580	WORD	wordpools/wasnorm_wordpool_less_exclusions.txt	LTP275	ltpFR	2	3	-1	CONTAINER	366	n/a	n/a	-1	1.0	1.0	1	upper	Verdana.ttf
415445	WORD	wordpools/wasnorm_wordpool_less_exclusions.txt	LTP275	ltpFR	2	3	-1	BABY	64	n/a	n/a	-1	1.0	1.0	1	upper	Verdana.ttf
419305	WORD	wordpools/wasnorm_wordpool_less_exclusions.txt	LTP275	ltpFR	2	3	-1	BASSINET	97	n/a	n/a	-1	1.0	1.0	1	upper	Verdana.ttf
423191	WORD	wordpools/wasnorm_wordpool_less_exclusions.txt	LTP275	ltpFR	2	3	-1	ORCHID	982	n/a	n/a	-1	1.0	1.0	1	upper	Verdana.ttf
427089	WORD	wordpools/wasnorm_wordpool_less_exclusions.txt	LTP275	ltpFR	2	3	-1	DECK	443	n/a	n/a	-1	1.0	1.0	1	upper	Verdana.ttf
431121	WORD	wordpools/wasnorm_wordpool_less_exclusions.txt	LTP275	ltpFR	2	3	-1	TRAITOR	1495	n/a	n/a	-1	1.0	1.0	1	upper	Verdana.ttf
435298	WORD	wordpools/wasnorm_wordpool_less_exclusions.txt	LTP275	ltpFR	2	3	-1	MOTHER	921	n/a	n/a	-1	1.0	1.0	1	upper	Verdana.ttf
439152	WORD	wordpools/wasnorm_wordpool_less_exclusions.txt	LTP275	ltpFR	2	3	-1	GARDEN	623	n/a	n/a	-1	1.0	1.0	1	upper	Verdana.ttf
443133	WORD	wordpools/wasnorm_wordpool_less_exclusions.txt	LTP275	ltpFR	2	3	-1	DAM	436	n/a	n/a	-1	1.0	1.0	1	upper	Verdana.ttf
447165	WORD	wordpools/wasnorm_wordpool_less_exclusions.txt	LTP275	ltpFR	2	3	-1	SUSPECT	1415	n/a	n/a	-1	1.0	1.0	1	upper	Verdana.ttf
451062	WORD	wordpools/wasnorm_wordpool_less_exclusions.txt	LTP275	ltpFR	2	3	-1	FLEET	578	n/a	n/a	-1	1.0	1.0	1	upper	Verdana.ttf
456952	REC_START	n/a	LTP275	ltpFR	2	3	n/a	n/a	n/a	n/a	n/a	n/a	n/a	n/a	n/a	n/a	n/a
458054	REC_WORD	wordpools/wasnorm_wordpool_less_exclusions.txt	LTP275	ltpFR	2	3	-1	SUSPECT	1415	n/a	n/a	-1	n/a	n/a	n/a	n/a	n/a
459049	REC_WORD	wordpools/wasnorm_wordpool_less_exclusions.txt	LTP275	ltpFR	2	3	-1	FLEET	578	n/a	n/a	-1	n/a	n/a	n/a	n/a	n/a
460534	REC_WORD	wordpools/wasnorm_wordpool_less_exclusions.txt	LTP275	ltpFR	2	3	-1	DAM	436	n/a	n/a	-1	n/a	n/a	n/a	n/a	n/a
461509	REC_WORD	wordpools/wasnorm_wordpool_less_exclusions.txt	LTP275	ltpFR	2	3	-1	TRAITOR	1495	n/a	n/a	-1	n/a	n/a	n/a	n/a	n/a
462473	REC_WORD	wordpools/wasnorm_wordpool_less_exclusions.txt	LTP275	ltpFR	2	3	-1	MOTHER	921	n/a	n/a	-1	n/a	n/a	n/a	n/a	n/a
464470	REC_WORD	wordpools/wasnorm_wordpool_less_exclusions.txt	LTP275	ltpFR	2	3	-1	NEWSSTAND	949	n/a	n/a	-1	n/a	n/a	n/a	n/a	n/a
465680	REC_WORD	wordpools/wasnorm_wordpool_less_exclusions.txt	LTP275	ltpFR	2	3	-1	BLUEPRINT	142	n/a	n/a	-1	n/a	n/a	n/a	n/a	n/a
467543	REC_WORD	wordpools/wasnorm_wordpool_less_exclusions.txt	LTP275	ltpFR	2	3	-1	ORCHID	982	n/a	n/a	-1	n/a	n/a	n/a	n/a	n/a
468502	REC_WORD	wordpools/wasnorm_wordpool_less_exclusions.txt	LTP275	ltpFR	2	3	-1	BABY	64	n/a	n/a	-1	n/a	n/a	n/a	n/a	n/a
469381	REC_WORD	wordpools/wasnorm_wordpool_less_exclusions.txt	LTP275	ltpFR	2	3	-1	BASSINET	97	n/a	n/a	-1	n/a	n/a	n/a	n/a	n/a
471012	REC_WORD	wordpools/wasnorm_wordpool_less_exclusions.txt	LTP275	ltpFR	2	3	-1	MUG	930	n/a	n/a	-1	n/a	n/a	n/a	n/a	n/a
472184	REC_WORD	wordpools/wasnorm_wordpool_less_exclusions.txt	LTP275	ltpFR	2	3	-1	COB	334	n/a	n/a	-1	n/a	n/a	n/a	n/a	n/a
473309	REC_WORD	wordpools/wasnorm_wordpool_less_exclusions.txt	LTP275	ltpFR	2	3	-1	NOVEL	960	n/a	n/a	-1	n/a	n/a	n/a	n/a	n/a
481368	REC_WORD	wordpools/wasnorm_wordpool_less_exclusions.txt	LTP275	ltpFR	2	3	-1	DECK	443	n/a	n/a	-1	n/a	n/a	n/a	n/a	n/a
482579	REC_WORD	wordpools/wasnorm_wordpool_less_exclusions.txt	LTP275	ltpFR	2	3	-1	GARDEN	623	n/a	n/a	-1	n/a	n/a	n/a	n/a	n/a
542752	WORD	wordpools/wasnorm_wordpool_less_exclusions.txt	LTP275	ltpFR	2	4	0	MATTRESS	879	n/a	n/a	1	0.57763671875	0.412841796875	1	upper	amplitud.ttf
546606	WORD	wordpools/wasnorm_wordpool_less_exclusions.txt	LTP275	ltpFR	2	4	0	HOUSE	725	n/a	n/a	1	0.57763671875	0.412841796875	1	upper	amplitud.ttf
550766	WORD	wordpools/wasnorm_wordpool_less_exclusions.txt	LTP275	ltpFR	2	4	0	FOLLOWER	589	n/a	n/a	1	0.57763671875	0.412841796875	1	upper	amplitud.ttf
554731	WORD	wordpools/wasnorm_wordpool_less_exclusions.txt	LTP275	ltpFR	2	4	0	PRESIDENT	1121	n/a	n/a	1	0.57763671875	0.412841796875	1	upper	amplitud.ttf
558885	WORD	wordpools/wasnorm_wordpool_less_exclusions.txt	LTP275	ltpFR	2	4	0	SPARROW	1347	n/a	n/a	0	0.57763671875	0.412841796875	1	upper	amplitud.ttf
563097	WORD	wordpools/wasnorm_wordpool_less_exclusions.txt	LTP275	ltpFR	2	4	1	VALVE	1546	n/a	n/a	1	0.422607421875	0.5869140625	0	lower	zerothre.ttf
567066	WORD	wordpools/wasnorm_wordpool_less_exclusions.txt	LTP275	ltpFR	2	4	1	OLIVE	975	n/a	n/a	1	0.422607421875	0.5869140625	0	lower	zerothre.ttf
571199	WORD	wordpools/wasnorm_wordpool_less_exclusions.txt	LTP275	ltpFR	2	4	1	WELL	1600	n/a	n/a	0	0.422607421875	0.5869140625	0	lower	zerothre.ttf
575315	WORD	wordpools/wasnorm_wordpool_less_exclusions.txt	LTP275	ltpFR	2	4	1	PLUMBER	1091	n/a	n/a	1	0.422607421875	0.5869140625	0	lower	zerothre.ttf
579513	WORD	wordpools/wasnorm_wordpool_less_exclusions.txt	LTP275	ltpFR	2	4	1	PISTON	1076	n/a	n/a	0	0.422607421875	0.5869140625	0	lower	zerothre.ttf
583695	WORD	wordpools/wasnorm_wordpool_less_exclusions.txt	LTP275	ltpFR	2	4	0	BEET	115	n/a	n/a	0	0.57763671875	0.412841796875	1	upper	amplitud.ttf
587794	WORD	wordpools/wasnorm_wordpool_less_exclusions.txt	LTP275	ltpFR	2	4	0	DIAGRAM	456	n/a	n/a	0	0.57763671875	0.412841796875	1	upper	amplitud.ttf
591888	WORD	wordpools/wasnorm_wordpool_less_exclusions.txt	LTP275	ltpFR	2	4	0	LEOPARD	812	n/a	n/a	1	0.57763671875	0.412841796875	1	upper	amplitud.ttf
595791	WORD	wordpools/wasnorm_wordpool_less_exclusions.txt	LTP275	ltpFR	2	4	1	COUGAR	387	n/a	n/a	1	0.422607421875	0.5869140625	0	lower	zerothre.ttf
599633	WORD	wordpools/wasnorm_wordpool_less_exclusions.txt	LTP275	ltpFR	2	4	1	WALL	1582	n/a	n/a	0	0.422607421875	0.5869140625	0	lower	zerothre.ttf
603671	WORD	wordpools/wasnorm_wordpool_less_exclusions.txt	LTP275	ltpFR	2	4	1	ELECTRON	522	n/a	n/a	0	0.422607421875	0.5869140625	0	lower	zerothre.ttf
609361	REC_START	n/a	LTP275	ltpFR	2	4	n/a	n/a	n/a	n/a	n/a	n/a	n/a	n/a	n/a	n/a	n/a
610024	REC_WORD	wordpools/wasnorm_wordpool_less_exclusions.txt	LTP275	ltpFR	2	4	1	ELECTRON	522	n/a	n/a	0	n/a	n/a	n/a	n/a	n/a
611350	REC_WORD	wordpools/wasnorm_wordpool_less_exclusions.txt	LTP275	ltpFR	2	4	1	WALL	1582	n/a	n/a	0	n/a	n/a	n/a	n/a	n/a
612438	REC_WORD	wordpools/wasnorm_wordpool_less_exclusions.txt	LTP275	ltpFR	2	4	0	LEOPARD	812	n/a	n/a	1	n/a	n/a	n/a	n/a	n/a
614034	REC_WORD	wordpools/wasnorm_wordpool_less_exclusions.txt	LTP275	ltpFR	2	4	0	SPARROW	1347	n/a	n/a	0	n/a	n/a	n/a	n/a	n/a
627176	REC_WORD	wordpools/wasnorm_wordpool_less_exclusions.txt	LTP275	ltpFR	2	4	0	MATTRESS	879	n/a	n/a	1	n/a	n/a	n/a	n/a	n/a
628599	REC_WORD	wordpools/wasnorm_wordpool_less_exclusions.txt	LTP275	ltpFR	2	4	0	HOUSE	725	n/a	n/a	1	n/a	n/a	n/a	n/a	n/a
636472	REC_WORD	wordpools/wasnorm_wordpool_less_exclusions.txt	LTP275	ltpFR	2	4	1	PLUMBER	1091	n/a	n/a	1	n/a	n/a	n/a	n/a	n/a
689678	WORD	wordpools/wasnorm_wordpool_less_exclusions.txt	LTP275	ltpFR	2	5	0	CELERY	266	n/a	n/a	0	0.57763671875	0.412841796875	1	upper	amplitud.ttf
693738	WORD	wordpools/wasnorm_wordpool_less_exclusions.txt	LTP275	ltpFR	2	5	0	MASCARA	875	n/a	n/a	0	0.57763671875	0.412841796875	1	upper	amplitud.ttf
697658	WORD	wordpools/wasnorm_wordpool_less_exclusions.txt	LTP275	ltpFR	2	5	0	WATER	1594	n/a	n/a	0	0.57763671875	0.412841796875	1	upper	amplitud.ttf
701718	WORD	wordpools/wasnorm_wordpool_less_exclusions.txt	LTP275	ltpFR	2	5	0	ONION	977	n/a	n/a	0	0.57763671875	0.412841796875	1	upper	amplitud.ttf
705650	WORD	wordpools/wasnorm_wordpool_less_exclusions.txt	LTP275	ltpFR	2	5	0	PERFUME	1049	n/a	n/a	0	0.57763671875	0.412841796875	1	upper	amplitud.ttf
709815	WORD	wordpools/wasnorm_wordpool_less_exclusions.txt	LTP275	ltpFR	2	5	0	OPERATOR	979	n/a	n/a	1	0.57763671875	0.412841796875	1	upper	amplitud.ttf
714003	WORD	wordpools/wasnorm_wordpool_less_exclusions.txt	LTP275	ltpFR	2	5	0	CABINET	212	n/a	n/a	1	0.57763671875	0.412841796875	1	upper	amplitud.ttf
717963	WORD	wordpools/wasnorm_wordpool_less_exclusions.txt	LTP275	ltpFR	2	5	0	ATTIC	56	n/a	n/a	1	0.57763671875	0.412841796875	1	upper	amplitud.ttf
721916	WORD	wordpools/wasnorm_wordpool_less_exclusions.txt	LTP275	ltpFR	2	5	0	OWNER	993	n/a	n/a	1	0.57763671875	0.412841796875	1	upper	amplitud.ttf
726133	WORD	wordpools/wasnorm_wordpool_less_exclusions.txt	LTP275	ltpFR	2	5	0	ROBE	1198	n/a	n/a	1	0.57763671875	0.412841796875	1	upper	amplitud.ttf
730310	WORD	wordpools/wasnorm_wordpool_less_exclusions.txt	LTP275	ltpFR	2	5	0	ELEPHANT	523	n/a	n/a	1	0.57763671875	0.412841796875	1	upper	amplitud.ttf
734380	WORD	wordpools/wasnorm_wordpool_less_exclusions.txt	LTP275	ltpFR	2	5	0	SCARECROW	1245	n/a	n/a	1	0.57763671875	0.412841796875	1	upper	amplitud.ttf
738540	WORD	wordpools/wasnorm_wordpool_less_exclusions.txt	LTP275	ltpFR	2	5	0	TONGUE	1479	n/a	n/a	0	0.57763671875	0.412841796875	1	upper	amplitud.ttf
742656	WORD	wordpools/wasnorm_wordpool_less_exclusions.txt	LTP275	ltpFR	2	5	0	MOUTH	926	n/a	n/a	0	0.57763671875	0.412841796875	1	upper	amplitud.ttf
746643	WORD	wordpools/wasnorm_wordpool_less_exclusions.txt	LTP275	ltpFR	2	5	0	DOOR	486	n/a	n/a	1	0.57763671875	0.412841796875	1	upper	amplitud.ttf
750558	WORD	wordpools/wasnorm_wordpool_less_exclusions.txt	LTP275	ltpFR	2	5	0	SALAD	1224	n/a	n/a	0	0.57763671875	0.412841796875	1	upper	amplitud.ttf
756281	REC_START	n/a	LTP275	ltpFR	2	5	n/a	n/a	n/a	n/a	n/a	n/a	n/a	n/a	n/a	n/a	n/a
757692	REC_WORD	wordpools/wasnorm_wordpool_less_exclusions.txt	LTP275	ltpFR	2	5	0	SALAD	1224	n/a	n/a	0	n/a	n/a	n/a	n/a	n/a
759285	REC_WORD	wordpools/wasnorm_wordpool_less_exclusions.txt	LTP275	ltpFR	2	5	0	ONION	977	n/a	n/a	0	n/a	n/a	n/a	n/a	n/a
760315	REC_WORD	wordpools/wasnorm_wordpool_less_exclusions.txt	LTP275	ltpFR	2	5	0	CELERY	266	n/a	n/a	0	n/a	n/a	n/a	n/a	n/a
761665	REC_WORD	wordpools/wasnorm_wordpool_less_exclusions.txt	LTP275	ltpFR	2	5	0	MASCARA	875	n/a	n/a	0	n/a	n/a	n/a	n/a	n/a
763241	REC_WORD	wordpools/wasnorm_wordpool_less_exclusions.txt	LTP275	ltpFR	2	5	0	BEET	115	n/a	n/a	0	n/a	n/a	n/a	n/a	n/a
764506	REC_WORD	wordpools/wasnorm_wordpool_less_exclusions.txt	LTP275	ltpFR	2	5	0	PERFUME	1049	n/a	n/a	0	n/a	n/a	n/a	n/a	n/a
768349	REC_WORD	wordpools/wasnorm_wordpool_less_exclusions.txt	LTP275	ltpFR	2	5	0	OPERATOR	979	n/a	n/a	1	n/a	n/a	n/a	n/a	n/a
769777	REC_WORD	wordpools/wasnorm_wordpool_less_exclusions.txt	LTP275	ltpFR	2	5	0	OWNER	993	n/a	n/a	1	n/a	n/a	n/a	n/a	n/a
771063	REC_WORD	wordpools/wasnorm_wordpool_less_exclusions.txt	LTP275	ltpFR	2	5	0	ATTIC	56	n/a	n/a	1	n/a	n/a	n/a	n/a	n/a
772311	REC_WORD	wordpools/wasnorm_wordpool_less_exclusions.txt	LTP275	ltpFR	2	5	0	CABINET	212	n/a	n/a	1	n/a	n/a	n/a	n/a	n/a
773599	REC_WORD	wordpools/wasnorm_wordpool_less_exclusions.txt	LTP275	ltpFR	2	5	0	SCARECROW	1245	n/a	n/a	1	n/a	n/a	n/a	n/a	n/a
775580	REC_WORD	wordpools/wasnorm_wordpool_less_exclusions.txt	LTP275	ltpFR	2	5	0	ELEPHANT	523	n/a	n/a	1	n/a	n/a	n/a	n/a	n/a
839839	WORD	wordpools/wasnorm_wordpool_less_exclusions.txt	LTP275	ltpFR	2	6	-1	RAM	1165	n/a	n/a	-1	1.0	1.0	1	upper	Verdana.ttf
844060	WORD	wordpools/wasnorm_wordpool_less_exclusions.txt	LTP275	ltpFR	2	6	-1	TUBA	1515	n/a	n/a	-1	1.0	1.0	1	upper	Verdana.ttf
848193	WORD	wordpools/wasnorm_wordpool_less_exclusions.txt	LTP275	ltpFR	2	6	-1	CHIEF	298	n/a	n/a	-1	1.0	1.0	1	upper	Verdana.ttf
852292	WORD	wordpools/wasnorm_wordpool_less_exclusions.txt	LTP275	ltpFR	2	6	-1	LEADER	807	n/a	n/a	-1	1.0	1.0	1	upper	Verdana.ttf
856274	WORD	wordpools/wasnorm_wordpool_less_exclusions.txt	LTP275	ltpFR	2	6	-1	ENGINE	535	n/a	n/a	-1	1.0	1.0	1	upper	Verdana.ttf
860483	WORD	wordpools/wasnorm_wordpool_less_exclusions.txt	LTP275	ltpFR	2	6	-1	SANDWICH	1232	n/a	n/a	-1	1.0	1.0	1	upper	Verdana.ttf
864321	WORD	wordpools/wasnorm_wordpool_less_exclusions.txt	LTP275	ltpFR	2	6	-1	CHERRY	293	n/a	n/a	-1	1.0	1.0	1	upper	Verdana.ttf
868319	WORD	wordpools/wasnorm_wordpool_less_exclusions.txt	LTP275	ltpFR	2	6	-1	CINNAMON	310	n/a	n/a	-1	1.0	1.0	1	upper	Verdana.ttf
872383	WORD	wordpools/wasnorm_wordpool_less_exclusions.txt	LTP275	ltpFR	2	6	-1	BUN	197	n/a	n/a	-1	1.0	1.0	1	upper	Verdana.ttf
876327	WORD	wordpools/wasnorm_wordpool_less_exclusions.txt	LTP275	ltpFR	2	6	-1	DEPUTY	450	n/a	n/a	-1	1.0	1.0	1	upper	Verdana.ttf
880197	WORD	wordpools/wasnorm_wordpool_less_exclusions.txt	LTP275	ltpFR	2	6	-1	MOP	916	n/a	n/a	-1	1.0	1.0	1	upper	Verdana.ttf
884162	WORD	wordpools/wasnorm_wordpool_less_exclusions.txt	LTP275	ltpFR	2	6	-1	RECORD	1176	n/a	n/a	-1	1.0	1.0	1	upper	Verdana.ttf
888177	WORD	wordpools/wasnorm_wordpool_less_exclusions.txt	LTP275	ltpFR	2	6	-1	PLUM	1090	n/a	n/a	-1	1.0	1.0	1	upper	Verdana.ttf
892019	WORD	wordpools/wasnorm_wordpool_less_exclusions.txt	LTP275	ltpFR	2	6	-1	TUNNEL	1519	n/a	n/a	-1	1.0	1.0	1	upper	Verdana.ttf
896107	WORD	wordpools/wasnorm_wordpool_less_exclusions.txt	LTP275	ltpFR	2	6	-1	NEUTRON	947	n/a	n/a	-1	1.0	1.0	1	upper	Verdana.ttf
900015	WORD	wordpools/wasnorm_wordpool_less_exclusions.txt	LTP275	ltpFR	2	6	-1	MOLECULE	905	n/a	n/a	-1	1.0	1.0	1	upper	Verdana.ttf
905739	REC_START	n/a	LTP275	ltpFR	2	6	n/a	n/a	n/a	n/a	n/a	n/a	n/a	n/a	n/a	n/a	n/a
906200	REC_WORD	wordpools/wasnorm_wordpool_less_exclusions.txt	LTP275	ltpFR	2	6	-1	NEUTRON	947	n/a	n/a	-1	n/a	n/a	n/a	n/a	n/a
907488	REC_WORD	wordpools/wasnorm_wordpool_less_exclusions.txt	LTP275	ltpFR	2	6	-1	MOLECULE	905	n/a	n/a	-1	n/a	n/a	n/a	n/a	n/a
908967	REC_WORD	wordpools/wasnorm_wordpool_less_exclusions.txt	LTP275	ltpFR	2	6	-1	TUNNEL	1519	n/a	n/a	-1	n/a	n/a	n/a	n/a	n/a
910199	REC_WORD	wordpools/wasnorm_wordpool_less_exclusions.txt	LTP275	ltpFR	2	6	-1	RAM	1165	n/a	n/a	-1	n/a	n/a	n/a	n/a	n/a
911600	REC_WORD	wordpools/wasnorm_wordpool_less_exclusions.txt	LTP275	ltpFR	2	6	-1	TUBA	1515	n/a	n/a	-1	n/a	n/a	n/a	n/a	n/a
912700	REC_WORD	wordpools/wasnorm_wordpool_less_exclusions.txt	LTP275	ltpFR	2	6	-1	CHIEF	298	n/a	n/a	-1	n/a	n/a	n/a	n/a	n/a
913965	REC_WORD	wordpools/wasnorm_wordpool_less_exclusions.txt	LTP275	ltpFR	2	6	-1	LEADER	807	n/a	n/a	-1	n/a	n/a	n/a	n/a	n/a
915430	REC_WORD	wordpools/wasnorm_wordpool_less_exclusions.txt	LTP275	ltpFR	2	6	-1	ENGINE	535	n/a	n/a	-1	n/a	n/a	n/a	n/a	n/a
916877	REC_WORD	wordpools/wasnorm_wordpool_less_exclusions.txt	LTP275	ltpFR	2	6	-1	SANDWICH	1232	n/a	n/a	-1	n/a	n/a	n/a	n/a	n/a
918234	REC_WORD	wordpools/wasnorm_wordpool_less_exclusions.txt	LTP275	ltpFR	2	6	-1	DEPUTY	450	n/a	n/a	-1	n/a	n/a	n/a	n/a	n/a
921350	REC_WORD	wordpools/wasnorm_wordpool_less_exclusions.txt	LTP275	ltpFR	2	6	-1	CHERRY	293	n/a	n/a	-1	n/a	n/a	n/a	n/a	n/a
922715	REC_WORD	wordpools/wasnorm_wordpool_less_exclusions.txt	LTP275	ltpFR	2	6	-1	BUN	197	n/a	n/a	-1	n/a	n/a	n/a	n/a	n/a
924010	REC_WORD	wordpools/wasnorm_wordpool_less_exclusions.txt	LTP275	ltpFR	2	6	-1	CINNAMON	310	n/a	n/a	-1	n/a	n/a	n/a	n/a	n/a
987618	WORD	wordpools/wasnorm_wordpool_less_exclusions.txt	LTP275	ltpFR	2	7	-1	GUARD	667	n/a	n/a	-1	1.0	1.0	1	upper	Verdana.ttf
991795	WORD	wordpools/wasnorm_wordpool_less_exclusions.txt	LTP275	ltpFR	2	7	-1	GREASE	660	n/a	n/a	-1	1.0	1.0	1	upper	Verdana.ttf
995748	WORD	wordpools/wasnorm_wordpool_less_exclusions.txt	LTP275	ltpFR	2	7	-1	SPOON	1357	n/a	n/a	-1	1.0	1.0	1	upper	Verdana.ttf
999831	WORD	wordpools/wasnorm_wordpool_less_exclusions.txt	LTP275	ltpFR	2	7	-1	DOCK	477	n/a	n/a	-1	1.0	1.0	1	upper	Verdana.ttf
1003779	WORD	wordpools/wasnorm_wordpool_less_exclusions.txt	LTP275	ltpFR	2	7	-1	HEN	703	n/a	n/a	-1	1.0	1.0	1	upper	Verdana.ttf
1007877	WORD	wordpools/wasnorm_wordpool_less_exclusions.txt	LTP275	ltpFR	2	7	-1	GENERAL	630	n/a	n/a	-1	1.0	1.0	1	upper	Verdana.ttf
1011826	WORD	wordpools/wasnorm_wordpool_less_exclusions.txt	LTP275	ltpFR	2	7	-1	DINNER	468	n/a	n/a	-1	1.0	1.0	1	upper	Verdana.ttf
1015975	WORD	wordpools/wasnorm_wordpool_less_exclusions.txt	LTP275	ltpFR	2	7	-1	FARMER	553	n/a	n/a	-1	1.0	1.0	1	upper	Verdana.ttf
1019884	WORD	wordpools/wasnorm_wordpool_less_exclusions.txt	LTP275	ltpFR	2	7	-1	RADIO	1157	n/a	n/a	-1	1.0	1.0	1	upper	Verdana.ttf
1023748	WORD	wordpools/wasnorm_wordpool_less_exclusions.txt	LTP275	ltpFR	2	7	-1	KEYBOARD	774	n/a	n/a	-1	1.0	1.0	1	upper	Verdana.ttf
1027585	WORD	wordpools/wasnorm_wordpool_less_exclusions.txt	LTP275	ltpFR	2	7	-1	FAUCET	555	n/a	n/a	-1	1.0	1.0	1	upper	Verdana.ttf
1031517	WORD	wordpools/wasnorm_wordpool_less_exclusions.txt	LTP275	ltpFR	2	7	-1	WATERFALL	1595	n/a	n/a	-1	1.0	1.0	1	upper	Verdana.ttf
1035732	WORD	wordpools/wasnorm_wordpool_less_exclusions.txt	LTP275	ltpFR	2	7	-1	DANDRUFF	439	n/a	n/a	-1	1.0	1.0	1	upper	Verdana.ttf
1039826	WORD	wordpools/wasnorm_wordpool_less_exclusions.txt	LTP275	ltpFR	2	7	-1	BOUILLON	154	n/a	n/a	-1	1.0	1.0	1	upper	Verdana.ttf
1043863	WORD	wordpools/wasnorm_wordpool_less_exclusions.txt	LTP275	ltpFR	2	7	-1	PADDLE	1000	n/a	n/a	-1	1.0	1.0	1	upper	Verdana.ttf
1047861	WORD	wordpools/wasnorm_wordpool_less_exclusions.txt	LTP275	ltpFR	2	7	-1	GLUE	643	n/a	n/a	-1	1.0	1.0	1	upper	Verdana.ttf
1053679	REC_START	n/a	LTP275	ltpFR	2	7	n/a	n/a	n/a	n/a	n/a	n/a	n/a	n/a	n/a	n/a	n/a
1054966	REC_WORD	wordpools/wasnorm_wordpool_less_exclusions.txt	LTP275	ltpFR	2	7	-1	GLUE	643	n/a	n/a	-1	n/a	n/a	n/a	n/a	n/a
1056417	REC_WORD	wordpools/wasnorm_wordpool_less_exclusions.txt	LTP275	ltpFR	2	7	-1	PADDLE	1000	n/a	n/a	-1	n/a	n/a	n/a	n/a	n/a
1057475	REC_WORD	wordpools/wasnorm_wordpool_less_exclusions.txt	LTP275	ltpFR	2	7	-1	BOUILLON	154	n/a	n/a	-1	n/a	n/a	n/a	n/a	n/a
1061230	REC_WORD	wordpools/wasnorm_wordpool_less_exclusions.txt	LTP275	ltpFR	2	7	-1	DOCK	477	n/a	n/a	-1	n/a	n/a	n/a	n/a	n/a
1062326	REC_WORD	wordpools/wasnorm_wordpool_less_exclusions.txt	LTP275	ltpFR	2	7	-1	WATERFALL	1595	n/a	n/a	-1	n/a	n/a	n/a	n/a	n/a
1063788	REC_WORD	wordpools/wasnorm_wordpool_less_exclusions.txt	LTP275	ltpFR	2	7	-1	RADIO	1157	n/a	n/a	-1	n/a	n/a	n/a	n/a	n/a
1064948	REC_WORD	wordpools/wasnorm_wordpool_less_exclusions.txt	LTP275	ltpFR	2	7	-1	KEYBOARD	774	n/a	n/a	-1	n/a	n/a	n/a	n/a	n/a
1066509	REC_WORD	wordpools/wasnorm_wordpool_less_exclusions.txt	LTP275	ltpFR	2	7	-1	GENERAL	630	n/a	n/a	-1	n/a	n/a	n/a	n/a	n/a
1067569	REC_WORD	wordpools/wasnorm_wordpool_less_exclusions.txt	LTP275	ltpFR	2	7	-1	FARMER	553	n/a	n/a	-1	n/a	n/a	n/a	n/a	n/a
1069138	REC_WORD	wordpools/wasnorm_wordpool_less_exclusions.txt	LTP275	ltpFR	2	7	-1	DINNER	468	n/a	n/a	-1	n/a	n/a	n/a	n/a	n/a
1071831	REC_WORD	wordpools/wasnorm_wordpool_less_exclusions.txt	LTP275	ltpFR	2	7	-1	GUARD	667	n/a	n/a	-1	n/a	n/a	n/a	n/a	n/a
1073087	REC_WORD	wordpools/wasnorm_wordpool_less_exclusions.txt	LTP275	ltpFR	2	7	-1	SPOON	1357	n/a	n/a	-1	n/a	n/a	n/a	n/a	n/a
1074795	REC_WORD	wordpools/wasnorm_wordpool_less_exclusions.txt	LTP275	ltpFR	2	7	-1	GREASE	660	n/a	n/a	-1	n/a	n/a	n/a	n/a	n/a
1134901	WORD	wordpools/wasnorm_wordpool_less_exclusions.txt	LTP275	ltpFR	2	8	0	BATTERY	101	n/a	n/a	0	0.57763671875	0.412841796875	1	upper	amplitud.ttf
1138737	WORD	wordpools/wasnorm_wordpool_less_exclusions.txt	LTP275	ltpFR	2	8	0	CAB	209	n/a	n/a	1	0.57763671875	0.412841796875	1	upper	amplitud.ttf
1142680	WORD	wordpools/wasnorm_wordpool_less_exclusions.txt	LTP275	ltpFR	2	8	0	DOCUMENT	479	n/a	n/a	0	0.57763671875	0.412841796875	1	upper	amplitud.ttf
1146801	WORD	wordpools/wasnorm_wordpool_less_exclusions.txt	LTP275	ltpFR	2	8	0	EDITOR	516	n/a	n/a	1	0.57763671875	0.412841796875	1	upper	amplitud.ttf
1150894	WORD	wordpools/wasnorm_wordpool_less_exclusions.txt	LTP275	ltpFR	2	8	0	CHIP	303	n/a	n/a	0	0.57763671875	0.412841796875	1	upper	amplitud.ttf
1154792	WORD	wordpools/wasnorm_wordpool_less_exclusions.txt	LTP275	ltpFR	2	8	0	BARN	89	n/a	n/a	1	0.57763671875	0.412841796875	1	upper	amplitud.ttf
1158908	WORD	wordpools/wasnorm_wordpool_less_exclusions.txt	LTP275	ltpFR	2	8	0	GRILL	661	n/a	n/a	0	0.57763671875	0.412841796875	1	upper	amplitud.ttf
1162862	WORD	wordpools/wasnorm_wordpool_less_exclusions.txt	LTP275	ltpFR	2	8	0	MONARCH	906	n/a	n/a	1	0.57763671875	0.412841796875	1	upper	amplitud.ttf
1166893	WORD	wordpools/wasnorm_wordpool_less_exclusions.txt	LTP275	ltpFR	2	8	0	STRAWBERRY	1391	n/a	n/a	0	0.57763671875	0.412841796875	1	upper	amplitud.ttf
1171009	WORD	wordpools/wasnorm_wordpool_less_exclusions.txt	LTP275	ltpFR	2	8	0	ROOST	1208	n/a	n/a	1	0.57763671875	0.412841796875	1	upper	amplitud.ttf
1174857	WORD	wordpools/wasnorm_wordpool_less_exclusions.txt	LTP275	ltpFR	2	8	0	PEACH	1031	n/a	n/a	0	0.57763671875	0.412841796875	1	upper	amplitud.ttf
1178822	WORD	wordpools/wasnorm_wordpool_less_exclusions.txt	LTP275	ltpFR	2	8	0	ZEBRA	1635	n/a	n/a	1	0.57763671875	0.412841796875	1	upper	amplitud.ttf
1182787	WORD	wordpools/wasnorm_wordpool_less_exclusions.txt	LTP275	ltpFR	2	8	0	FROST	609	n/a	n/a	1	0.57763671875	0.412841796875	1	upper	amplitud.ttf
1186752	WORD	wordpools/wasnorm_wordpool_less_exclusions.txt	LTP275	ltpFR	2	8	0	MUSHROOM	934	n/a	n/a	0	0.57763671875	0.412841796875	1	upper	amplitud.ttf
1190761	WORD	wordpools/wasnorm_wordpool_less_exclusions.txt	LTP275	ltpFR	2	8	0	GEM	629	n/a	n/a	0	0.57763671875	0.412841796875	1	upper	amplitud.ttf
1194983	WORD	wordpools/wasnorm_wordpool_less_exclusions.txt	LTP275	ltpFR	2	8	0	MARBLE	867	n/a	n/a	0	0.57763671875	0.412841796875	1	upper	amplitud.ttf
1200549	REC_START	n/a	LTP275	ltpFR	2	8	n/a	n/a	n/a	n/a	n/a	n/a	n/a	n/a	n/a	n/a	n/a
1201840	REC_WORD	wordpools/wasnorm_wordpool_less_exclusions.txt	LTP275	ltpFR	2	8	0	MARBLE	867	n/a	n/a	0	n/a	n/a	n/a	n/a	n/a
1203089	REC_WORD	wordpools/wasnorm_wordpool_less_exclusions.txt	LTP275	ltpFR	2	8	0	GEM	629	n/a	n/a	0	n/a	n/a	n/a	n/a	n/a
1204348	REC_WORD	wordpools/wasnorm_wordpool_less_exclusions.txt	LTP275	ltpFR	2	8	-1	PLUM	1090	n/a	n/a	-1	n/a	n/a	n/a	n/a	n/a
1206089	REC_WORD	wordpools/wasnorm_wordpool_less_exclusions.txt	LTP275	ltpFR	2	8	0	CAB	209	n/a	n/a	1	n/a	n/a	n/a	n/a	n/a
1207719	REC_WORD	wordpools/wasnorm_wordpool_less_exclusions.txt	LTP275	ltpFR	2	8	0	EDITOR	516	n/a	n/a	1	n/a	n/a	n/a	n/a	n/a
1228762	REC_WORD	wordpools/wasnorm_wordpool_less_exclusions.txt	LTP275	ltpFR	2	8	0	DOCUMENT	479	n/a	n/a	0	n/a	n/a	n/a	n/a	n/a
1276206	REST_REWET	n/a	LTP275	ltpFR	2	8	n/a	n/a	n/a	n/a	n/a	n/a	n/a	n/a	n/a	n/a	n/a
1589548	WORD	wordpools/wasnorm_wordpool_less_exclusions.txt	LTP275	ltpFR	2	9	1	DESIGNER	451	n/a	n/a	1	0.422607421875	0.5869140625	0	lower	zerothre.ttf
1593384	WORD	wordpools/wasnorm_wordpool_less_exclusions.txt	LTP275	ltpFR	2	9	1	COSTUME	383	n/a	n/a	0	0.422607421875	0.5869140625	0	lower	zerothre.ttf
1597449	WORD	wordpools/wasnorm_wordpool_less_exclusions.txt	LTP275	ltpFR	2	9	1	TABLE	1426	n/a	n/a	0	0.422607421875	0.5869140625	0	lower	zerothre.ttf
1601448	WORD	wordpools/wasnorm_wordpool_less_exclusions.txt	LTP275	ltpFR	2	9	1	WHIP	1604	n/a	n/a	0	0.422607421875	0.5869140625	0	lower	zerothre.ttf
1605396	WORD	wordpools/wasnorm_wordpool_less_exclusions.txt	LTP275	ltpFR	2	9	1	CREVICE	405	n/a	n/a	0	0.422607421875	0.5869140625	0	lower	zerothre.ttf
1609445	WORD	wordpools/wasnorm_wordpool_less_exclusions.txt	LTP275	ltpFR	2	9	1	CAMEL	223	n/a	n/a	1	0.422607421875	0.5869140625	0	lower	zerothre.ttf
1613527	WORD	wordpools/wasnorm_wordpool_less_exclusions.txt	LTP275	ltpFR	2	9	1	KNUCKLE	789	n/a	n/a	1	0.422607421875	0.5869140625	0	lower	zerothre.ttf
1617709	WORD	wordpools/wasnorm_wordpool_less_exclusions.txt	LTP275	ltpFR	2	9	1	CHIME	300	n/a	n/a	0	0.422607421875	0.5869140625	0	lower	zerothre.ttf
1621875	WORD	wordpools/wasnorm_wordpool_less_exclusions.txt	LTP275	ltpFR	2	9	1	SNACK	1331	n/a	n/a	0	0.422607421875	0.5869140625	0	lower	zerothre.ttf
1625856	WORD	wordpools/wasnorm_wordpool_less_exclusions.txt	LTP275	ltpFR	2	9	1	MITTEN	902	n/a	n/a	0	0.422607421875	0.5869140625	0	lower	zerothre.ttf
1630000	WORD	wordpools/wasnorm_wordpool_less_exclusions.txt	LTP275	ltpFR	2	9	1	LAKE	796	n/a	n/a	0	0.422607421875	0.5869140625	0	lower	zerothre.ttf
1634100	WORD	wordpools/wasnorm_wordpool_less_exclusions.txt	LTP275	ltpFR	2	9	1	LIMB	822	n/a	n/a	1	0.422607421875	0.5869140625	0	lower	zerothre.ttf
1637997	WORD	wordpools/wasnorm_wordpool_less_exclusions.txt	LTP275	ltpFR	2	9	1	APPENDAGE	32	n/a	n/a	1	0.422607421875	0.5869140625	0	lower	zerothre.ttf
1641917	WORD	wordpools/wasnorm_wordpool_less_exclusions.txt	LTP275	ltpFR	2	9	1	CUPBOARD	425	n/a	n/a	0	0.422607421875	0.5869140625	0	lower	zerothre.ttf
1645994	WORD	wordpools/wasnorm_wordpool_less_exclusions.txt	LTP275	ltpFR	2	9	1	LAMB	797	n/a	n/a	1	0.422607421875	0.5869140625	0	lower	zerothre.ttf
1650025	WORD	wordpools/wasnorm_wordpool_less_exclusions.txt	LTP275	ltpFR	2	9	1	CHIPMUNK	304	n/a	n/a	1	0.422607421875	0.5869140625	0	lower	zerothre.ttf
1655720	REC_START	n/a	LTP275	ltpFR	2	9	n/a	n/a	n/a	n/a	n/a	n/a	n/a	n/a	n/a	n/a	n/a
1656806	REC_WORD	wordpools/wasnorm_wordpool_less_exclusions.txt	LTP275	ltpFR	2	9	1	CHIPMUNK	304	n/a	n/a	1	n/a	n/a	n/a	n/a	n/a
1657694	REC_WORD	wordpools/wasnorm_wordpool_less_exclusions.txt	LTP275	ltpFR	2	9	1	LAMB	797	n/a	n/a	1	n/a	n/a	n/a	n/a	n/a
1658907	REC_WORD	wordpools/wasnorm_wordpool_less_exclusions.txt	LTP275	ltpFR	2	9	1	CAMEL	223	n/a	n/a	1	n/a	n/a	n/a	n/a	n/a
1660143	REC_WORD	wordpools/wasnorm_wordpool_less_exclusions.txt	LTP275	ltpFR	2	9	1	APPENDAGE	32	n/a	n/a	1	n/a	n/a	n/a	n/a	n/a
1661326	REC_WORD	wordpools/wasnorm_wordpool_less_exclusions.txt	LTP275	ltpFR	2	9	1	LIMB	822	n/a	n/a	1	n/a	n/a	n/a	n/a	n/a
1662423	REC_WORD	wordpools/wasnorm_wordpool_less_exclusions.txt	LTP275	ltpFR	2	9	1	CREVICE	405	n/a	n/a	0	n/a	n/a	n/a	n/a	n/a
1663833	REC_WORD	wordpools/wasnorm_wordpool_less_exclusions.txt	LTP275	ltpFR	2	9	1	LAKE	796	n/a	n/a	0	n/a	n/a	n/a	n/a	n/a
1665097	REC_WORD	wordpools/wasnorm_wordpool_less_exclusions.txt	LTP275	ltpFR	2	9	1	CUPBOARD	425	n/a	n/a	0	n/a	n/a	n/a	n/a	n/a
1666258	REC_WORD	wordpools/wasnorm_wordpool_less_exclusions.txt	LTP275	ltpFR	2	9	1	SNACK	1331	n/a	n/a	0	n/a	n/a	n/a	n/a	n/a
1667778	REC_WORD	wordpools/wasnorm_wordpool_less_exclusions.txt	LTP275	ltpFR	2	9	1	MITTEN	902	n/a	n/a	0	n/a	n/a	n/a	n/a	n/a
1669034	REC_WORD	wordpools/wasnorm_wordpool_less_exclusions.txt	LTP275	ltpFR	2	9	1	CHIME	300	n/a	n/a	0	n/a	n/a	n/a	n/a	n/a
1670682	REC_WORD	wordpools/wasnorm_wordpool_less_exclusions.txt	LTP275	ltpFR	2	9	1	TABLE	1426	n/a	n/a	0	n/a	n/a	n/a	n/a	n/a
1672156	REC_WORD	wordpools/wasnorm_wordpool_less_exclusions.txt	LTP275	ltpFR	2	9	1	DESIGNER	451	n/a	n/a	1	n/a	n/a	n/a	n/a	n/a
1674127	REC_WORD	wordpools/wasnorm_wordpool_less_exclusions.txt	LTP275	ltpFR	2	9	1	COSTUME	383	n/a	n/a	0	n/a	n/a	n/a	n/a	n/a
1675688	REC_WORD	wordpools/wasnorm_wordpool_less_exclusions.txt	LTP275	ltpFR	2	9	1	KNUCKLE	789	n/a	n/a	1	n/a	n/a	n/a	n/a	n/a
1712993	REC_WORD	wordpools/wasnorm_wordpool_less_exclusions.txt	LTP275	ltpFR	2	9	1	WHIP	1604	n/a	n/a	0	n/a	n/a	n/a	n/a	n/a
1743628	WORD	wordpools/wasnorm_wordpool_less_exclusions.txt	LTP275	ltpFR	2	10	-1	WAX	1597	n/a	n/a	-1	1.0	1.0	1	upper	Verdana.ttf
1747515	WORD	wordpools/wasnorm_wordpool_less_exclusions.txt	LTP275	ltpFR	2	10	-1	RUG	1215	n/a	n/a	-1	1.0	1.0	1	upper	Verdana.ttf
1751530	WORD	wordpools/wasnorm_wordpool_less_exclusions.txt	LTP275	ltpFR	2	10	-1	VISITOR	1573	n/a	n/a	-1	1.0	1.0	1	upper	Verdana.ttf
1755679	WORD	wordpools/wasnorm_wordpool_less_exclusions.txt	LTP275	ltpFR	2	10	-1	STAKE	1368	n/a	n/a	-1	1.0	1.0	1	upper	Verdana.ttf
1759689	WORD	wordpools/wasnorm_wordpool_less_exclusions.txt	LTP275	ltpFR	2	10	-1	DUMP	505	n/a	n/a	-1	1.0	1.0	1	upper	Verdana.ttf
1763570	WORD	wordpools/wasnorm_wordpool_less_exclusions.txt	LTP275	ltpFR	2	10	-1	BEAVER	109	n/a	n/a	-1	1.0	1.0	1	upper	Verdana.ttf
1767708	WORD	wordpools/wasnorm_wordpool_less_exclusions.txt	LTP275	ltpFR	2	10	-1	BUS	201	n/a	n/a	-1	1.0	1.0	1	upper	Verdana.ttf
1771873	WORD	wordpools/wasnorm_wordpool_less_exclusions.txt	LTP275	ltpFR	2	10	-1	STOMACH	1384	n/a	n/a	-1	1.0	1.0	1	upper	Verdana.ttf
1775939	WORD	wordpools/wasnorm_wordpool_less_exclusions.txt	LTP275	ltpFR	2	10	-1	CLARINET	317	n/a	n/a	-1	1.0	1.0	1	upper	Verdana.ttf
1780032	WORD	wordpools/wasnorm_wordpool_less_exclusions.txt	LTP275	ltpFR	2	10	-1	ORCHESTRA	981	n/a	n/a	-1	1.0	1.0	1	upper	Verdana.ttf
1784204	WORD	wordpools/wasnorm_wordpool_less_exclusions.txt	LTP275	ltpFR	2	10	-1	OX	994	n/a	n/a	-1	1.0	1.0	1	upper	Verdana.ttf
1788397	WORD	wordpools/wasnorm_wordpool_less_exclusions.txt	LTP275	ltpFR	2	10	-1	TOAST	1471	n/a	n/a	-1	1.0	1.0	1	upper	Verdana.ttf
1792585	WORD	wordpools/wasnorm_wordpool_less_exclusions.txt	LTP275	ltpFR	2	10	-1	ROOF	1205	n/a	n/a	-1	1.0	1.0	1	upper	Verdana.ttf
1796449	WORD	wordpools/wasnorm_wordpool_less_exclusions.txt	LTP275	ltpFR	2	10	-1	SHELTER	1282	n/a	n/a	-1	1.0	1.0	1	upper	Verdana.ttf
1800398	WORD	wordpools/wasnorm_wordpool_less_exclusions.txt	LTP275	ltpFR	2	10	-1	SHORTCAKE	1292	n/a	n/a	-1	1.0	1.0	1	upper	Verdana.ttf
1804530	WORD	wordpools/wasnorm_wordpool_less_exclusions.txt	LTP275	ltpFR	2	10	-1	VAN	1548	n/a	n/a	-1	1.0	1.0	1	upper	Verdana.ttf
1810370	REC_START	n/a	LTP275	ltpFR	2	10	n/a	n/a	n/a	n/a	n/a	n/a	n/a	n/a	n/a	n/a	n/a
1811286	REC_WORD	wordpools/wasnorm_wordpool_less_exclusions.txt	LTP275	ltpFR	2	10	-1	VAN	1548	n/a	n/a	-1	n/a	n/a	n/a	n/a	n/a
1812321	REC_WORD	wordpools/wasnorm_wordpool_less_exclusions.txt	LTP275	ltpFR	2	10	-1	BUS	201	n/a	n/a	-1	n/a	n/a	n/a	n/a	n/a
1813145	REC_WORD	wordpools/wasnorm_wordpool_less_exclusions.txt	LTP275	ltpFR	2	10	-1	ROOF	1205	n/a	n/a	-1	n/a	n/a	n/a	n/a	n/a
1814267	REC_WORD	wordpools/wasnorm_wordpool_less_exclusions.txt	LTP275	ltpFR	2	10	-1	SHORTCAKE	1292	n/a	n/a	-1	n/a	n/a	n/a	n/a	n/a
1815488	REC_WORD	wordpools/wasnorm_wordpool_less_exclusions.txt	LTP275	ltpFR	2	10	-1	SHELTER	1282	n/a	n/a	-1	n/a	n/a	n/a	n/a	n/a
1816997	REC_WORD	wordpools/wasnorm_wordpool_less_exclusions.txt	LTP275	ltpFR	2	10	-1	RUG	1215	n/a	n/a	-1	n/a	n/a	n/a	n/a	n/a
1818210	REC_WORD	wordpools/wasnorm_wordpool_less_exclusions.txt	LTP275	ltpFR	2	10	-1	WAX	1597	n/a	n/a	-1	n/a	n/a	n/a	n/a	n/a
1819630	REC_WORD	wordpools/wasnorm_wordpool_less_exclusions.txt	LTP275	ltpFR	2	10	-1	VISITOR	1573	n/a	n/a	-1	n/a	n/a	n/a	n/a	n/a
1820726	REC_WORD	wordpools/wasnorm_wordpool_less_exclusions.txt	LTP275	ltpFR	2	10	-1	STAKE	1368	n/a	n/a	-1	n/a	n/a	n/a	n/a	n/a
1822557	REC_WORD	wordpools/wasnorm_wordpool_less_exclusions.txt	LTP275	ltpFR	2	10	-1	DUMP	505	n/a	n/a	-1	n/a	n/a	n/a	n/a	n/a
1823845	REC_WORD	wordpools/wasnorm_wordpool_less_exclusions.txt	LTP275	ltpFR	2	10	-1	TOAST	1471	n/a	n/a	-1	n/a	n/a	n/a	n/a	n/a
1825275	REC_WORD	wordpools/wasnorm_wordpool_less_exclusions.txt	LTP275	ltpFR	2	10	-1	STOMACH	1384	n/a	n/a	-1	n/a	n/a	n/a	n/a	n/a
1826806	REC_WORD	wordpools/wasnorm_wordpool_less_exclusions.txt	LTP275	ltpFR	2	10	-1	BEAVER	109	n/a	n/a	-1	n/a	n/a	n/a	n/a	n/a
1827878	REC_WORD	wordpools/wasnorm_wordpool_less_exclusions.txt	LTP275	ltpFR	2	10	-1	ORCHESTRA	981	n/a	n/a	-1	n/a	n/a	n/a	n/a	n/a
1829260	REC_WORD	wordpools/wasnorm_wordpool_less_exclusions.txt	LTP275	ltpFR	2	10	-1	OX	994	n/a	n/a	-1	n/a	n/a	n/a	n/a	n/a
1830597	REC_WORD	wordpools/wasnorm_wordpool_less_exclusions.txt	LTP275	ltpFR	2	10	-1	CLARINET	317	n/a	n/a	-1	n/a	n/a	n/a	n/a	n/a
1892178	WORD	wordpools/wasnorm_wordpool_less_exclusions.txt	LTP275	ltpFR	2	11	0	GUARDIAN	668	n/a	n/a	1	0.57763671875	0.412841796875	1	upper	amplitud.ttf
1896093	WORD	wordpools/wasnorm_wordpool_less_exclusions.txt	LTP275	ltpFR	2	11	0	SILK	1307	n/a	n/a	0	0.57763671875	0.412841796875	1	upper	amplitud.ttf
1900186	WORD	wordpools/wasnorm_wordpool_less_exclusions.txt	LTP275	ltpFR	2	11	0	SHERIFF	1284	n/a	n/a	1	0.57763671875	0.412841796875	1	upper	amplitud.ttf
1904251	WORD	wordpools/wasnorm_wordpool_less_exclusions.txt	LTP275	ltpFR	2	11	0	BOAT	144	n/a	n/a	1	0.57763671875	0.412841796875	1	upper	amplitud.ttf
1908283	WORD	wordpools/wasnorm_wordpool_less_exclusions.txt	LTP275	ltpFR	2	11	1	SHIP	1286	n/a	n/a	0	0.422607421875	0.5869140625	0	lower	zerothre.ttf
1912220	WORD	wordpools/wasnorm_wordpool_less_exclusions.txt	LTP275	ltpFR	2	11	1	SUBWAY	1400	n/a	n/a	0	0.422607421875	0.5869140625	0	lower	zerothre.ttf
1916219	WORD	wordpools/wasnorm_wordpool_less_exclusions.txt	LTP275	ltpFR	2	11	1	TOMATO	1476	n/a	n/a	1	0.422607421875	0.5869140625	0	lower	zerothre.ttf
1920445	WORD	wordpools/wasnorm_wordpool_less_exclusions.txt	LTP275	ltpFR	2	11	1	FATHER	554	n/a	n/a	1	0.422607421875	0.5869140625	0	lower	zerothre.ttf
1924382	WORD	wordpools/wasnorm_wordpool_less_exclusions.txt	LTP275	ltpFR	2	11	0	TULIP	1517	n/a	n/a	0	0.57763671875	0.412841796875	1	upper	amplitud.ttf
1928508	WORD	wordpools/wasnorm_wordpool_less_exclusions.txt	LTP275	ltpFR	2	11	0	THORN	1459	n/a	n/a	0	0.57763671875	0.412841796875	1	upper	amplitud.ttf
1932362	WORD	wordpools/wasnorm_wordpool_less_exclusions.txt	LTP275	ltpFR	2	11	1	IRON	744	n/a	n/a	0	0.422607421875	0.5869140625	0	lower	zerothre.ttf
1936272	WORD	wordpools/wasnorm_wordpool_less_exclusions.txt	LTP275	ltpFR	2	11	1	GLASSES	640	n/a	n/a	0	0.422607421875	0.5869140625	0	lower	zerothre.ttf
1940354	WORD	wordpools/wasnorm_wordpool_less_exclusions.txt	LTP275	ltpFR	2	11	1	SNOB	1335	n/a	n/a	0	0.422607421875	0.5869140625	0	lower	zerothre.ttf
1944569	WORD	wordpools/wasnorm_wordpool_less_exclusions.txt	LTP275	ltpFR	2	11	1	SIREN	1310	n/a	n/a	0	0.422607421875	0.5869140625	0	lower	zerothre.ttf
1948774	WORD	wordpools/wasnorm_wordpool_less_exclusions.txt	LTP275	ltpFR	2	11	0	LAPEL	800	n/a	n/a	0	0.57763671875	0.412841796875	1	upper	amplitud.ttf
1952990	WORD	wordpools/wasnorm_wordpool_less_exclusions.txt	LTP275	ltpFR	2	11	0	ROOMMATE	1207	n/a	n/a	1	0.57763671875	0.412841796875	1	upper	amplitud.ttf
1959058	REC_START	n/a	LTP275	ltpFR	2	11	n/a	n/a	n/a	n/a	n/a	n/a	n/a	n/a	n/a	n/a	n/a
1959632	REC_WORD	wordpools/wasnorm_wordpool_less_exclusions.txt	LTP275	ltpFR	2	11	0	ROOMMATE	1207	n/a	n/a	1	n/a	n/a	n/a	n/a	n/a
1960615	REC_WORD	wordpools/wasnorm_wordpool_less_exclusions.txt	LTP275	ltpFR	2	11	1	FATHER	554	n/a	n/a	1	n/a	n/a	n/a	n/a	n/a
1961832	REC_WORD	wordpools/wasnorm_wordpool_less_exclusions.txt	LTP275	ltpFR	2	11	0	SHERIFF	1284	n/a	n/a	1	n/a	n/a	n/a	n/a	n/a
1963422	REC_WORD	wordpools/wasnorm_wordpool_less_exclusions.txt	LTP275	ltpFR	2	11	0	GUARDIAN	668	n/a	n/a	1	n/a	n/a	n/a	n/a	n/a
1965110	REC_WORD	wordpools/wasnorm_wordpool_less_exclusions.txt	LTP275	ltpFR	2	11	0	SILK	1307	n/a	n/a	0	n/a	n/a	n/a	n/a	n/a
1967630	REC_WORD	wordpools/wasnorm_wordpool_less_exclusions.txt	LTP275	ltpFR	2	11	1	SHIP	1286	n/a	n/a	0	n/a	n/a	n/a	n/a	n/a
1969350	REC_WORD	wordpools/wasnorm_wordpool_less_exclusions.txt	LTP275	ltpFR	2	11	1	SUBWAY	1400	n/a	n/a	0	n/a	n/a	n/a	n/a	n/a
1971285	REC_WORD	wordpools/wasnorm_wordpool_less_exclusions.txt	LTP275	ltpFR	2	11	1	IRON	744	n/a	n/a	0	n/a	n/a	n/a	n/a	n/a
1972630	REC_WORD	wordpools/wasnorm_wordpool_less_exclusions.txt	LTP275	ltpFR	2	11	0	TULIP	1517	n/a	n/a	0	n/a	n/a	n/a	n/a	n/a
1974095	REC_WORD	wordpools/wasnorm_wordpool_less_exclusions.txt	LTP275	ltpFR	2	11	0	THORN	1459	n/a	n/a	0	n/a	n/a	n/a	n/a	n/a
1975778	REC_WORD	wordpools/wasnorm_wordpool_less_exclusions.txt	LTP275	ltpFR	2	11	0	BOAT	144	n/a	n/a	1	n/a	n/a	n/a	n/a	n/a
2024419	REC_WORD	wordpools/wasnorm_wordpool_less_exclusions.txt	LTP275	ltpFR	2	11	1	SNOB	1335	n/a	n/a	0	n/a	n/a	n/a	n/a	n/a
2041618	WORD	wordpools/wasnorm_wordpool_less_exclusions.txt	LTP275	ltpFR	2	12	1	GANG	619	n/a	n/a	1	0.422607421875	0.5869140625	0	lower	zerothre.ttf
2045516	WORD	wordpools/wasnorm_wordpool_less_exclusions.txt	LTP275	ltpFR	2	12	1	COLT	349	n/a	n/a	1	0.422607421875	0.5869140625	0	lower	zerothre.ttf
2049615	WORD	wordpools/wasnorm_wordpool_less_exclusions.txt	LTP275	ltpFR	2	12	1	VILLAGE	1566	n/a	n/a	0	0.422607421875	0.5869140625	0	lower	zerothre.ttf
2053702	WORD	wordpools/wasnorm_wordpool_less_exclusions.txt	LTP275	ltpFR	2	12	1	SOCIETY	1338	n/a	n/a	0	0.422607421875	0.5869140625	0	lower	zerothre.ttf
2057768	WORD	wordpools/wasnorm_wordpool_less_exclusions.txt	LTP275	ltpFR	2	12	1	LUNG	850	n/a	n/a	1	0.422607421875	0.5869140625	0	lower	zerothre.ttf
2061682	WORD	wordpools/wasnorm_wordpool_less_exclusions.txt	LTP275	ltpFR	2	12	1	COMB	351	n/a	n/a	0	0.422607421875	0.5869140625	0	lower	zerothre.ttf
2065831	WORD	wordpools/wasnorm_wordpool_less_exclusions.txt	LTP275	ltpFR	2	12	1	VETERAN	1561	n/a	n/a	1	0.422607421875	0.5869140625	0	lower	zerothre.ttf
2070014	WORD	wordpools/wasnorm_wordpool_less_exclusions.txt	LTP275	ltpFR	2	12	1	BRAN	167	n/a	n/a	0	0.422607421875	0.5869140625	0	lower	zerothre.ttf
2074097	WORD	wordpools/wasnorm_wordpool_less_exclusions.txt	LTP275	ltpFR	2	12	1	CORN	381	n/a	n/a	1	0.422607421875	0.5869140625	0	lower	zerothre.ttf
2078095	WORD	wordpools/wasnorm_wordpool_less_exclusions.txt	LTP275	ltpFR	2	12	1	CANYON	235	n/a	n/a	0	0.422607421875	0.5869140625	0	lower	zerothre.ttf
2082161	WORD	wordpools/wasnorm_wordpool_less_exclusions.txt	LTP275	ltpFR	2	12	1	ATMOSPHERE	54	n/a	n/a	0	0.422607421875	0.5869140625	0	lower	zerothre.ttf
2086226	WORD	wordpools/wasnorm_wordpool_less_exclusions.txt	LTP275	ltpFR	2	12	1	TRENCH	1503	n/a	n/a	0	0.422607421875	0.5869140625	0	lower	zerothre.ttf
2090407	WORD	wordpools/wasnorm_wordpool_less_exclusions.txt	LTP275	ltpFR	2	12	1	CATTLE	261	n/a	n/a	1	0.422607421875	0.5869140625	0	lower	zerothre.ttf
2094256	WORD	wordpools/wasnorm_wordpool_less_exclusions.txt	LTP275	ltpFR	2	12	1	MOUNTAIN	924	n/a	n/a	0	0.422607421875	0.5869140625	0	lower	zerothre.ttf
2098305	WORD	wordpools/wasnorm_wordpool_less_exclusions.txt	LTP275	ltpFR	2	12	1	DOG	480	n/a	n/a	1	0.422607421875	0.5869140625	0	lower	zerothre.ttf
2102253	WORD	wordpools/wasnorm_wordpool_less_exclusions.txt	LTP275	ltpFR	2	12	1	FOX	598	n/a	n/a	1	0.422607421875	0.5869140625	0	lower	zerothre.ttf
2108310	REC_START	n/a	LTP275	ltpFR	2	12	n/a	n/a	n/a	n/a	n/a	n/a	n/a	n/a	n/a	n/a	n/a
2109419	REC_WORD	wordpools/wasnorm_wordpool_less_exclusions.txt	LTP275	ltpFR	2	12	1	FOX	598	n/a	n/a	1	n/a	n/a	n/a	n/a	n/a
2110890	REC_WORD	wordpools/wasnorm_wordpool_less_exclusions.txt	LTP275	ltpFR	2	12	1	DOG	480	n/a	n/a	1	n/a	n/a	n/a	n/a	n/a
2112199	REC_WORD	wordpools/wasnorm_wordpool_less_exclusions.txt	LTP275	ltpFR	2	12	1	CATTLE	261	n/a	n/a	1	n/a	n/a	n/a	n/a	n/a
2113650	REC_WORD	wordpools/wasnorm_wordpool_less_exclusions.txt	LTP275	ltpFR	2	12	1	COLT	349	n/a	n/a	1	n/a	n/a	n/a	n/a	n/a
2115738	REC_WORD	wordpools/wasnorm_wordpool_less_exclusions.txt	LTP275	ltpFR	2	12	1	CANYON	235	n/a	n/a	0	n/a	n/a	n/a	n/a	n/a
2117153	REC_WORD	wordpools/wasnorm_wordpool_less_exclusions.txt	LTP275	ltpFR	2	12	1	MOUNTAIN	924	n/a	n/a	0	n/a	n/a	n/a	n/a	n/a
2118509	REC_WORD	wordpools/wasnorm_wordpool_less_exclusions.txt	LTP275	ltpFR	2	12	1	TRENCH	1503	n/a	n/a	0	n/a	n/a	n/a	n/a	n/a
2120233	REC_WORD	wordpools/wasnorm_wordpool_less_exclusions.txt	LTP275	ltpFR	2	12	1	GANG	619	n/a	n/a	1	n/a	n/a	n/a	n/a	n/a
2121364	REC_WORD	wordpools/wasnorm_wordpool_less_exclusions.txt	LTP275	ltpFR	2	12	1	SOCIETY	1338	n/a	n/a	0	n/a	n/a	n/a	n/a	n/a
2123270	REC_WORD	wordpools/wasnorm_wordpool_less_exclusions.txt	LTP275	ltpFR	2	12	1	VILLAGE	1566	n/a	n/a	0	n/a	n/a	n/a	n/a	n/a
2127418	REC_WORD	wordpools/wasnorm_wordpool_less_exclusions.txt	LTP275	ltpFR	2	12	1	VETERAN	1561	n/a	n/a	1	n/a	n/a	n/a	n/a	n/a
2138613	REC_WORD	wordpools/wasnorm_wordpool_less_exclusions.txt	LTP275	ltpFR	2	12	1	ATMOSPHERE	54	n/a	n/a	0	n/a	n/a	n/a	n/a	n/a
2155551	REC_WORD	wordpools/wasnorm_wordpool_less_exclusions.txt	LTP275	ltpFR	2	12	1	CORN	381	n/a	n/a	1	n/a	n/a	n/a	n/a	n/a
2156877	REC_WORD	wordpools/wasnorm_wordpool_less_exclusions.txt	LTP275	ltpFR	2	12	1	BRAN	167	n/a	n/a	0	n/a	n/a	n/a	n/a	n/a
2192158	WORD	wordpools/wasnorm_wordpool_less_exclusions.txt	LTP275	ltpFR	2	13	0	BANK	83	n/a	n/a	1	0.57763671875	0.412841796875	1	upper	amplitud.ttf
2195989	WORD	wordpools/wasnorm_wordpool_less_exclusions.txt	LTP275	ltpFR	2	13	0	WALNUT	1584	n/a	n/a	0	0.57763671875	0.412841796875	1	upper	amplitud.ttf
2200155	WORD	wordpools/wasnorm_wordpool_less_exclusions.txt	LTP275	ltpFR	2	13	0	CAGE	218	n/a	n/a	1	0.57763671875	0.412841796875	1	upper	amplitud.ttf
2204332	WORD	wordpools/wasnorm_wordpool_less_exclusions.txt	LTP275	ltpFR	2	13	0	CEILING	265	n/a	n/a	1	0.57763671875	0.412841796875	1	upper	amplitud.ttf
2208186	WORD	wordpools/wasnorm_wordpool_less_exclusions.txt	LTP275	ltpFR	2	13	0	CARPET	247	n/a	n/a	1	0.57763671875	0.412841796875	1	upper	amplitud.ttf
2212268	WORD	wordpools/wasnorm_wordpool_less_exclusions.txt	LTP275	ltpFR	2	13	0	SPINE	1353	n/a	n/a	1	0.57763671875	0.412841796875	1	upper	amplitud.ttf
2216482	WORD	wordpools/wasnorm_wordpool_less_exclusions.txt	LTP275	ltpFR	2	13	0	HEATER	698	n/a	n/a	1	0.57763671875	0.412841796875	1	upper	amplitud.ttf
2220343	WORD	wordpools/wasnorm_wordpool_less_exclusions.txt	LTP275	ltpFR	2	13	0	OCTOPUS	971	n/a	n/a	1	0.57763671875	0.412841796875	1	upper	amplitud.ttf
2224529	WORD	wordpools/wasnorm_wordpool_less_exclusions.txt	LTP275	ltpFR	2	13	0	WRITER	1627	n/a	n/a	1	0.57763671875	0.412841796875	1	upper	amplitud.ttf
2228361	WORD	wordpools/wasnorm_wordpool_less_exclusions.txt	LTP275	ltpFR	2	13	0	RECEPTIONIST	1174	n/a	n/a	1	0.57763671875	0.412841796875	1	upper	amplitud.ttf
2232476	WORD	wordpools/wasnorm_wordpool_less_exclusions.txt	LTP275	ltpFR	2	13	0	FEATHER	557	n/a	n/a	0	0.57763671875	0.412841796875	1	upper	amplitud.ttf
2236491	WORD	wordpools/wasnorm_wordpool_less_exclusions.txt	LTP275	ltpFR	2	13	0	PAN	1008	n/a	n/a	0	0.57763671875	0.412841796875	1	upper	amplitud.ttf
2240434	WORD	wordpools/wasnorm_wordpool_less_exclusions.txt	LTP275	ltpFR	2	13	0	SHELL	1281	n/a	n/a	0	0.57763671875	0.412841796875	1	upper	amplitud.ttf
2244355	WORD	wordpools/wasnorm_wordpool_less_exclusions.txt	LTP275	ltpFR	2	13	0	DISH	474	n/a	n/a	0	0.57763671875	0.412841796875	1	upper	amplitud.ttf
2248281	WORD	wordpools/wasnorm_wordpool_less_exclusions.txt	LTP275	ltpFR	2	13	0	SILVERWARE	1308	n/a	n/a	0	0.57763671875	0.412841796875	1	upper	amplitud.ttf
2252446	WORD	wordpools/wasnorm_wordpool_less_exclusions.txt	LTP275	ltpFR	2	13	0	MONEY	908	n/a	n/a	0	0.57763671875	0.412841796875	1	upper	amplitud.ttf
2258119	REC_START	n/a	LTP275	ltpFR	2	13	n/a	n/a	n/a	n/a	n/a	n/a	n/a	n/a	n/a	n/a	n/a
2258744	REC_WORD	wordpools/wasnorm_wordpool_less_exclusions.txt	LTP275	ltpFR	2	13	0	MONEY	908	n/a	n/a	0	n/a	n/a	n/a	n/a	n/a
2259926	REC_WORD	wordpools/wasnorm_wordpool_less_exclusions.txt	LTP275	ltpFR	2	13	0	DISH	474	n/a	n/a	0	n/a	n/a	n/a	n/a	n/a
2261044	REC_WORD	wordpools/wasnorm_wordpool_less_exclusions.txt	LTP275	ltpFR	2	13	0	SILVERWARE	1308	n/a	n/a	0	n/a	n/a	n/a	n/a	n/a
2262464	REC_WORD	wordpools/wasnorm_wordpool_less_exclusions.txt	LTP275	ltpFR	2	13	0	WALNUT	1584	n/a	n/a	0	n/a	n/a	n/a	n/a	n/a
2263854	REC_WORD	wordpools/wasnorm_wordpool_less_exclusions.txt	LTP275	ltpFR	2	13	0	FEATHER	557	n/a	n/a	0	n/a	n/a	n/a	n/a	n/a
2265080	REC_WORD	wordpools/wasnorm_wordpool_less_exclusions.txt	LTP275	ltpFR	2	13	0	CAGE	218	n/a	n/a	1	n/a	n/a	n/a	n/a	n/a
2266317	REC_WORD	wordpools/wasnorm_wordpool_less_exclusions.txt	LTP275	ltpFR	2	13	0	CARPET	247	n/a	n/a	1	n/a	n/a	n/a	n/a	n/a
2267575	REC_WORD	wordpools/wasnorm_wordpool_less_exclusions.txt	LTP275	ltpFR	2	13	0	CEILING	265	n/a	n/a	1	n/a	n/a	n/a	n/a	n/a
2268917	REC_WORD	wordpools/wasnorm_wordpool_less_exclusions.txt	LTP275	ltpFR	2	13	0	BANK	83	n/a	n/a	1	n/a	n/a	n/a	n/a	n/a
2270241	REC_WORD	wordpools/wasnorm_wordpool_less_exclusions.txt	LTP275	ltpFR	2	13	0	WRITER	1627	n/a	n/a	1	n/a	n/a	n/a	n/a	n/a
2271483	REC_WORD	wordpools/wasnorm_wordpool_less_exclusions.txt	LTP275	ltpFR	2	13	n/a	RECEPTION	-1	n/a	n/a	n/a	n/a	n/a	n/a	n/a	n/a
2272912	REC_WORD	wordpools/wasnorm_wordpool_less_exclusions.txt	LTP275	ltpFR	2	13	0	SPINE	1353	n/a	n/a	1	n/a	n/a	n/a	n/a	n/a
2278010	REC_WORD	wordpools/wasnorm_wordpool_less_exclusions.txt	LTP275	ltpFR	2	13	0	PAN	1008	n/a	n/a	0	n/a	n/a	n/a	n/a	n/a
2280021	REC_WORD	wordpools/wasnorm_wordpool_less_exclusions.txt	LTP275	ltpFR	2	13	0	SHELL	1281	n/a	n/a	0	n/a	n/a	n/a	n/a	n/a
2287752	REC_WORD	wordpools/wasnorm_wordpool_less_exclusions.txt	LTP275	ltpFR	2	13	0	OCTOPUS	971	n/a	n/a	1	n/a	n/a	n/a	n/a	n/a
2301627	REC_WORD	wordpools/wasnorm_wordpool_less_exclusions.txt	LTP275	ltpFR	2	13	0	MONEY	908	n/a	n/a	0	n/a	n/a	n/a	n/a	n/a
2344577	WORD	wordpools/wasnorm_wordpool_less_exclusions.txt	LTP275	ltpFR	2	14	1	PUBLISHER	1137	n/a	n/a	1	0.422607421875	0.5869140625	0	lower	zerothre.ttf
2348530	WORD	wordpools/wasnorm_wordpool_less_exclusions.txt	LTP275	ltpFR	2	14	1	ROBOT	1200	n/a	n/a	0	0.422607421875	0.5869140625	0	lower	zerothre.ttf
2352612	WORD	wordpools/wasnorm_wordpool_less_exclusions.txt	LTP275	ltpFR	2	14	1	HONEY	713	n/a	n/a	0	0.422607421875	0.5869140625	0	lower	zerothre.ttf
2356778	WORD	wordpools/wasnorm_wordpool_less_exclusions.txt	LTP275	ltpFR	2	14	0	BROOK	177	n/a	n/a	1	0.57763671875	0.412841796875	1	upper	amplitud.ttf
2360754	WORD	wordpools/wasnorm_wordpool_less_exclusions.txt	LTP275	ltpFR	2	14	0	MARINE	869	n/a	n/a	1	0.57763671875	0.412841796875	1	upper	amplitud.ttf
2364875	WORD	wordpools/wasnorm_wordpool_less_exclusions.txt	LTP275	ltpFR	2	14	0	DIME	466	n/a	n/a	0	0.57763671875	0.412841796875	1	upper	amplitud.ttf
2368940	WORD	wordpools/wasnorm_wordpool_less_exclusions.txt	LTP275	ltpFR	2	14	0	TABLET	1427	n/a	n/a	0	0.57763671875	0.412841796875	1	upper	amplitud.ttf
2373034	WORD	wordpools/wasnorm_wordpool_less_exclusions.txt	LTP275	ltpFR	2	14	0	CITIZEN	312	n/a	n/a	1	0.57763671875	0.412841796875	1	upper	amplitud.ttf
2377139	WORD	wordpools/wasnorm_wordpool_less_exclusions.txt	LTP275	ltpFR	2	14	0	CORPORATION	382	n/a	n/a	1	0.57763671875	0.412841796875	1	upper	amplitud.ttf
2381338	WORD	wordpools/wasnorm_wordpool_less_exclusions.txt	LTP275	ltpFR	2	14	1	ASTRONAUT	51	n/a	n/a	1	0.422607421875	0.5869140625	0	lower	zerothre.ttf
2385553	WORD	wordpools/wasnorm_wordpool_less_exclusions.txt	LTP275	ltpFR	2	14	1	JACKET	747	n/a	n/a	0	0.422607421875	0.5869140625	0	lower	zerothre.ttf
2389384	WORD	wordpools/wasnorm_wordpool_less_exclusions.txt	LTP275	ltpFR	2	14	1	POCKET	1093	n/a	n/a	0	0.422607421875	0.5869140625	0	lower	zerothre.ttf
2393494	WORD	wordpools/wasnorm_wordpool_less_exclusions.txt	LTP275	ltpFR	2	14	0	MARGARINE	868	n/a	n/a	0	0.57763671875	0.412841796875	1	upper	amplitud.ttf
2397381	WORD	wordpools/wasnorm_wordpool_less_exclusions.txt	LTP275	ltpFR	2	14	0	BUTTER	205	n/a	n/a	0	0.57763671875	0.412841796875	1	upper	amplitud.ttf
2401374	WORD	wordpools/wasnorm_wordpool_less_exclusions.txt	LTP275	ltpFR	2	14	1	AUTHOR	61	n/a	n/a	1	0.422607421875	0.5869140625	0	lower	zerothre.ttf
2405361	WORD	wordpools/wasnorm_wordpool_less_exclusions.txt	LTP275	ltpFR	2	14	1	OUTDOORS	987	n/a	n/a	0	0.422607421875	0.5869140625	0	lower	zerothre.ttf
2411218	REC_START	n/a	LTP275	ltpFR	2	14	n/a	n/a	n/a	n/a	n/a	n/a	n/a	n/a	n/a	n/a	n/a
2412153	REC_WORD	wordpools/wasnorm_wordpool_less_exclusions.txt	LTP275	ltpFR	2	14	1	OUTDOORS	987	n/a	n/a	0	n/a	n/a	n/a	n/a	n/a
2413791	REC_WORD	wordpools/wasnorm_wordpool_less_exclusions.txt	LTP275	ltpFR	2	14	0	MARGARINE	868	n/a	n/a	0	n/a	n/a	n/a	n/a	n/a
2414903	REC_WORD	wordpools/wasnorm_wordpool_less_exclusions.txt	LTP275	ltpFR	2	14	0	BUTTER	205	n/a	n/a	0	n/a	n/a	n/a	n/a	n/a
2416022	REC_WORD	wordpools/wasnorm_wordpool_less_exclusions.txt	LTP275	ltpFR	2	14	1	ASTRONAUT	51	n/a	n/a	1	n/a	n/a	n/a	n/a	n/a
2417418	REC_WORD	wordpools/wasnorm_wordpool_less_exclusions.txt	LTP275	ltpFR	2	14	1	JACKET	747	n/a	n/a	0	n/a	n/a	n/a	n/a	n/a
2418982	REC_WORD	wordpools/wasnorm_wordpool_less_exclusions.txt	LTP275	ltpFR	2	14	1	POCKET	1093	n/a	n/a	0	n/a	n/a	n/a	n/a	n/a
2420081	REC_WORD	wordpools/wasnorm_wordpool_less_exclusions.txt	LTP275	ltpFR	2	14	0	MARINE	869	n/a	n/a	1	n/a	n/a	n/a	n/a	n/a
2421204	REC_WORD	wordpools/wasnorm_wordpool_less_exclusions.txt	LTP275	ltpFR	2	14	0	CITIZEN	312	n/a	n/a	1	n/a	n/a	n/a	n/a	n/a
2422837	REC_WORD	wordpools/wasnorm_wordpool_less_exclusions.txt	LTP275	ltpFR	2	14	0	DIME	466	n/a	n/a	0	n/a	n/a	n/a	n/a	n/a
2423972	REC_WORD	wordpools/wasnorm_wordpool_less_exclusions.txt	LTP275	ltpFR	2	14	0	TABLET	1427	n/a	n/a	0	n/a	n/a	n/a	n/a	n/a
2425344	REC_WORD	wordpools/wasnorm_wordpool_less_exclusions.txt	LTP275	ltpFR	2	14	0	BROOK	177	n/a	n/a	1	n/a	n/a	n/a	n/a	n/a
2429605	REC_WORD	wordpools/wasnorm_wordpool_less_exclusions.txt	LTP275	ltpFR	2	14	1	PUBLISHER	1137	n/a	n/a	1	n/a	n/a	n/a	n/a	n/a
2437660	REC_WORD	wordpools/wasnorm_wordpool_less_exclusions.txt	LTP275	ltpFR	2	14	1	OUTDOORS	987	n/a	n/a	0	n/a	n/a	n/a	n/a	n/a
2475184	REC_WORD	wordpools/wasnorm_wordpool_less_exclusions.txt	LTP275	ltpFR	2	14	1	HONEY	713	n/a	n/a	0	n/a	n/a	n/a	n/a	n/a
2501819	WORD	wordpools/wasnorm_wordpool_less_exclusions.txt	LTP275	ltpFR	2	15	1	WHEAT	1602	n/a	n/a	1	0.422607421875	0.5869140625	0	lower	zerothre.ttf
2506024	WORD	wordpools/wasnorm_wordpool_less_exclusions.txt	LTP275	ltpFR	2	15	1	GARLIC	624	n/a	n/a	1	0.422607421875	0.5869140625	0	lower	zerothre.ttf
2509989	WORD	wordpools/wasnorm_wordpool_less_exclusions.txt	LTP275	ltpFR	2	15	1	MEAL	882	n/a	n/a	0	0.422607421875	0.5869140625	0	lower	zerothre.ttf
2514037	WORD	wordpools/wasnorm_wordpool_less_exclusions.txt	LTP275	ltpFR	2	15	1	CHEF	290	n/a	n/a	1	0.422607421875	0.5869140625	0	lower	zerothre.ttf
2518069	WORD	wordpools/wasnorm_wordpool_less_exclusions.txt	LTP275	ltpFR	2	15	1	QUAIL	1147	n/a	n/a	1	0.422607421875	0.5869140625	0	lower	zerothre.ttf
2521900	WORD	wordpools/wasnorm_wordpool_less_exclusions.txt	LTP275	ltpFR	2	15	1	SWING	1421	n/a	n/a	0	0.422607421875	0.5869140625	0	lower	zerothre.ttf
2525949	WORD	wordpools/wasnorm_wordpool_less_exclusions.txt	LTP275	ltpFR	2	15	0	NEST	945	n/a	n/a	0	0.57763671875	0.412841796875	1	upper	amplitud.ttf
2530031	WORD	wordpools/wasnorm_wordpool_less_exclusions.txt	LTP275	ltpFR	2	15	0	KING	777	n/a	n/a	1	0.57763671875	0.412841796875	1	upper	amplitud.ttf
2534041	WORD	wordpools/wasnorm_wordpool_less_exclusions.txt	LTP275	ltpFR	2	15	1	WAVE	1596	n/a	n/a	0	0.422607421875	0.5869140625	0	lower	zerothre.ttf
2538229	WORD	wordpools/wasnorm_wordpool_less_exclusions.txt	LTP275	ltpFR	2	15	1	BANNER	85	n/a	n/a	0	0.422607421875	0.5869140625	0	lower	zerothre.ttf
2542340	WORD	wordpools/wasnorm_wordpool_less_exclusions.txt	LTP275	ltpFR	2	15	0	PARROT	1015	n/a	n/a	0	0.57763671875	0.412841796875	1	upper	amplitud.ttf
2546460	WORD	wordpools/wasnorm_wordpool_less_exclusions.txt	LTP275	ltpFR	2	15	0	TREE	1502	n/a	n/a	1	0.57763671875	0.412841796875	1	upper	amplitud.ttf
2550358	WORD	wordpools/wasnorm_wordpool_less_exclusions.txt	LTP275	ltpFR	2	15	0	PRINCE	1124	n/a	n/a	1	0.57763671875	0.412841796875	1	upper	amplitud.ttf
2554484	WORD	wordpools/wasnorm_wordpool_less_exclusions.txt	LTP275	ltpFR	2	15	0	DWARF	510	n/a	n/a	1	0.57763671875	0.412841796875	1	upper	amplitud.ttf
2558350	WORD	wordpools/wasnorm_wordpool_less_exclusions.txt	LTP275	ltpFR	2	15	0	CYCLONE	431	n/a	n/a	1	0.57763671875	0.412841796875	1	upper	amplitud.ttf
2562503	WORD	wordpools/wasnorm_wordpool_less_exclusions.txt	LTP275	ltpFR	2	15	0	DOLPHIN	483	n/a	n/a	1	0.57763671875	0.412841796875	1	upper	amplitud.ttf
2568188	REC_START	n/a	LTP275	ltpFR	2	15	n/a	n/a	n/a	n/a	n/a	n/a	n/a	n/a	n/a	n/a	n/a
2569180	REC_WORD	wordpools/wasnorm_wordpool_less_exclusions.txt	LTP275	ltpFR	2	15	0	DOLPHIN	483	n/a	n/a	1	n/a	n/a	n/a	n/a	n/a
2570230	REC_WORD	wordpools/wasnorm_wordpool_less_exclusions.txt	LTP275	ltpFR	2	15	0	CYCLONE	431	n/a	n/a	1	n/a	n/a	n/a	n/a	n/a
2571651	REC_WORD	wordpools/wasnorm_wordpool_less_exclusions.txt	LTP275	ltpFR	2	15	1	WAVE	1596	n/a	n/a	0	n/a	n/a	n/a	n/a	n/a
2573091	REC_WORD	wordpools/wasnorm_wordpool_less_exclusions.txt	LTP275	ltpFR	2	15	0	PRINCE	1124	n/a	n/a	1	n/a	n/a	n/a	n/a	n/a
2575022	REC_WORD	wordpools/wasnorm_wordpool_less_exclusions.txt	LTP275	ltpFR	2	15	1	WHEAT	1602	n/a	n/a	1	n/a	n/a	n/a	n/a	n/a
2576277	REC_WORD	wordpools/wasnorm_wordpool_less_exclusions.txt	LTP275	ltpFR	2	15	1	GARLIC	624	n/a	n/a	1	n/a	n/a	n/a	n/a	n/a
2577399	REC_WORD	wordpools/wasnorm_wordpool_less_exclusions.txt	LTP275	ltpFR	2	15	1	CHEF	290	n/a	n/a	1	n/a	n/a	n/a	n/a	n/a
2579056	REC_WORD	wordpools/wasnorm_wordpool_less_exclusions.txt	LTP275	ltpFR	2	15	1	MEAL	882	n/a	n/a	0	n/a	n/a	n/a	n/a	n/a
2591957	REC_WORD	wordpools/wasnorm_wordpool_less_exclusions.txt	LTP275	ltpFR	2	15	0	DWARF	510	n/a	n/a	1	n/a	n/a	n/a	n/a	n/a
2597317	REC_WORD	wordpools/wasnorm_wordpool_less_exclusions.txt	LTP275	ltpFR	2	15	0	TREE	1502	n/a	n/a	1	n/a	n/a	n/a	n/a	n/a
2599088	REC_WORD	wordpools/wasnorm_wordpool_less_exclusions.txt	LTP275	ltpFR	2	15	1	SWING	1421	n/a	n/a	0	n/a	n/a	n/a	n/a	n/a
2648857	WORD	wordpools/wasnorm_wordpool_less_exclusions.txt	LTP275	ltpFR	2	16	1	PRUNE	1134	n/a	n/a	1	0.422607421875	0.5869140625	0	lower	zerothre.ttf
2652838	WORD	wordpools/wasnorm_wordpool_less_exclusions.txt	LTP275	ltpFR	2	16	1	CHAMPAGNE	278	n/a	n/a	0	0.422607421875	0.5869140625	0	lower	zerothre.ttf
2657054	WORD	wordpools/wasnorm_wordpool_less_exclusions.txt	LTP275	ltpFR	2	16	1	BASEBALL	93	n/a	n/a	0	0.422607421875	0.5869140625	0	lower	zerothre.ttf
2661204	WORD	wordpools/wasnorm_wordpool_less_exclusions.txt	LTP275	ltpFR	2	16	1	ELBOW	520	n/a	n/a	0	0.422607421875	0.5869140625	0	lower	zerothre.ttf
2665353	WORD	wordpools/wasnorm_wordpool_less_exclusions.txt	LTP275	ltpFR	2	16	1	DANDELION	438	n/a	n/a	1	0.422607421875	0.5869140625	0	lower	zerothre.ttf
2669373	WORD	wordpools/wasnorm_wordpool_less_exclusions.txt	LTP275	ltpFR	2	16	1	BLOSSOM	138	n/a	n/a	1	0.422607421875	0.5869140625	0	lower	zerothre.ttf
2673438	WORD	wordpools/wasnorm_wordpool_less_exclusions.txt	LTP275	ltpFR	2	16	1	SUBMARINE	1398	n/a	n/a	0	0.422607421875	0.5869140625	0	lower	zerothre.ttf
2677637	WORD	wordpools/wasnorm_wordpool_less_exclusions.txt	LTP275	ltpFR	2	16	1	SEA	1259	n/a	n/a	0	0.422607421875	0.5869140625	0	lower	zerothre.ttf
2681664	WORD	wordpools/wasnorm_wordpool_less_exclusions.txt	LTP275	ltpFR	2	16	1	LADY	794	n/a	n/a	1	0.422607421875	0.5869140625	0	lower	zerothre.ttf
2685746	WORD	wordpools/wasnorm_wordpool_less_exclusions.txt	LTP275	ltpFR	2	16	1	LIPSTICK	829	n/a	n/a	0	0.422607421875	0.5869140625	0	lower	zerothre.ttf
2689744	WORD	wordpools/wasnorm_wordpool_less_exclusions.txt	LTP275	ltpFR	2	16	1	PORK	1108	n/a	n/a	1	0.422607421875	0.5869140625	0	lower	zerothre.ttf
2693748	WORD	wordpools/wasnorm_wordpool_less_exclusions.txt	LTP275	ltpFR	2	16	1	GENTLEMAN	631	n/a	n/a	1	0.422607421875	0.5869140625	0	lower	zerothre.ttf
2697746	WORD	wordpools/wasnorm_wordpool_less_exclusions.txt	LTP275	ltpFR	2	16	1	SLEEVE	1324	n/a	n/a	0	0.422607421875	0.5869140625	0	lower	zerothre.ttf
2701711	WORD	wordpools/wasnorm_wordpool_less_exclusions.txt	LTP275	ltpFR	2	16	1	FARM	552	n/a	n/a	0	0.422607421875	0.5869140625	0	lower	zerothre.ttf
2705760	WORD	wordpools/wasnorm_wordpool_less_exclusions.txt	LTP275	ltpFR	2	16	1	RECIPE	1175	n/a	n/a	0	0.422607421875	0.5869140625	0	lower	zerothre.ttf
2709825	WORD	wordpools/wasnorm_wordpool_less_exclusions.txt	LTP275	ltpFR	2	16	1	GOOSE	649	n/a	n/a	1	0.422607421875	0.5869140625	0	lower	zerothre.ttf
2715743	REC_START	n/a	LTP275	ltpFR	2	16	n/a	n/a	n/a	n/a	n/a	n/a	n/a	n/a	n/a	n/a	n/a
2716413	REC_WORD	wordpools/wasnorm_wordpool_less_exclusions.txt	LTP275	ltpFR	2	16	1	GOOSE	649	n/a	n/a	1	n/a	n/a	n/a	n/a	n/a
2717348	REC_WORD	wordpools/wasnorm_wordpool_less_exclusions.txt	LTP275	ltpFR	2	16	1	FARM	552	n/a	n/a	0	n/a	n/a	n/a	n/a	n/a
2718613	REC_WORD	wordpools/wasnorm_wordpool_less_exclusions.txt	LTP275	ltpFR	2	16	1	PORK	1108	n/a	n/a	1	n/a	n/a	n/a	n/a	n/a
2719683	REC_WORD	wordpools/wasnorm_wordpool_less_exclusions.txt	LTP275	ltpFR	2	16	1	LADY	794	n/a	n/a	1	n/a	n/a	n/a	n/a	n/a
2720936	REC_WORD	wordpools/wasnorm_wordpool_less_exclusions.txt	LTP275	ltpFR	2	16	1	GENTLEMAN	631	n/a	n/a	1	n/a	n/a	n/a	n/a	n/a
2721981	REC_WORD	wordpools/wasnorm_wordpool_less_exclusions.txt	LTP275	ltpFR	2	16	1	SUBMARINE	1398	n/a	n/a	0	n/a	n/a	n/a	n/a	n/a
2723247	REC_WORD	wordpools/wasnorm_wordpool_less_exclusions.txt	LTP275	ltpFR	2	16	1	SLEEVE	1324	n/a	n/a	0	n/a	n/a	n/a	n/a	n/a
2725099	REC_WORD	wordpools/wasnorm_wordpool_less_exclusions.txt	LTP275	ltpFR	2	16	1	CHAMPAGNE	278	n/a	n/a	0	n/a	n/a	n/a	n/a	n/a
2726637	REC_WORD	wordpools/wasnorm_wordpool_less_exclusions.txt	LTP275	ltpFR	2	16	1	PRUNE	1134	n/a	n/a	1	n/a	n/a	n/a	n/a	n/a
2728226	REC_WORD	wordpools/wasnorm_wordpool_less_exclusions.txt	LTP275	ltpFR	2	16	1	BLOSSOM	138	n/a	n/a	1	n/a	n/a	n/a	n/a	n/a
2729317	REC_WORD	wordpools/wasnorm_wordpool_less_exclusions.txt	LTP275	ltpFR	2	16	1	DANDELION	438	n/a	n/a	1	n/a	n/a	n/a	n/a	n/a
2730421	REC_WORD	wordpools/wasnorm_wordpool_less_exclusions.txt	LTP275	ltpFR	2	16	n/a	SOFTBALL	1343	n/a	n/a	n/a	n/a	n/a	n/a	n/a	n/a
2736613	REC_WORD	wordpools/wasnorm_wordpool_less_exclusions.txt	LTP275	ltpFR	2	16	1	SEA	1259	n/a	n/a	0	n/a	n/a	n/a	n/a	n/a
2738624	REC_WORD	wordpools/wasnorm_wordpool_less_exclusions.txt	LTP275	ltpFR	2	16	1	FARM	552	n/a	n/a	0	n/a	n/a	n/a	n/a	n/a
2847790	REC_START	n/a	LTP275	ltpFR	2	n/a	n/a	n/a	n/a	n/a	n/a	n/a	n/a	n/a	n/a	n/a	n/a
2848553	FFR_REC_WORD	wordpools/wasnorm_wordpool_less_exclusions.txt	LTP275	ltpFR	2	n/a	1	WHEAT	1602	n/a	n/a	1	n/a	n/a	n/a	n/a	n/a
2849740	FFR_REC_WORD	wordpools/wasnorm_wordpool_less_exclusions.txt	LTP275	ltpFR	2	n/a	1	GARLIC	624	n/a	n/a	1	n/a	n/a	n/a	n/a	n/a
2850798	FFR_REC_WORD	wordpools/wasnorm_wordpool_less_exclusions.txt	LTP275	ltpFR	2	n/a	1	MEAL	882	n/a	n/a	0	n/a	n/a	n/a	n/a	n/a
2851995	FFR_REC_WORD	wordpools/wasnorm_wordpool_less_exclusions.txt	LTP275	ltpFR	2	n/a	1	CHEF	290	n/a	n/a	1	n/a	n/a	n/a	n/a	n/a
2853956	FFR_REC_WORD	wordpools/wasnorm_wordpool_less_exclusions.txt	LTP275	ltpFR	2	n/a	1	CORN	381	n/a	n/a	1	n/a	n/a	n/a	n/a	n/a
2855353	FFR_REC_WORD	wordpools/wasnorm_wordpool_less_exclusions.txt	LTP275	ltpFR	2	n/a	1	BLOSSOM	138	n/a	n/a	1	n/a	n/a	n/a	n/a	n/a
2856779	FFR_REC_WORD	wordpools/wasnorm_wordpool_less_exclusions.txt	LTP275	ltpFR	2	n/a	1	DANDELION	438	n/a	n/a	1	n/a	n/a	n/a	n/a	n/a
2858261	FFR_REC_WORD	wordpools/wasnorm_wordpool_less_exclusions.txt	LTP275	ltpFR	2	n/a	0	TREE	1502	n/a	n/a	1	n/a	n/a	n/a	n/a	n/a
2859678	FFR_REC_WORD	wordpools/wasnorm_wordpool_less_exclusions.txt	LTP275	ltpFR	2	n/a	1	SWING	1421	n/a	n/a	0	n/a	n/a	n/a	n/a	n/a
2861309	FFR_REC_WORD	wordpools/wasnorm_wordpool_less_exclusions.txt	LTP275	ltpFR	2	n/a	1	SUBMARINE	1398	n/a	n/a	0	n/a	n/a	n/a	n/a	n/a
2862751	FFR_REC_WORD	wordpools/wasnorm_wordpool_less_exclusions.txt	LTP275	ltpFR	2	n/a	1	LADY	794	n/a	n/a	1	n/a	n/a	n/a	n/a	n/a
2863968	FFR_REC_WORD	wordpools/wasnorm_wordpool_less_exclusions.txt	LTP275	ltpFR	2	n/a	1	GENTLEMAN	631	n/a	n/a	1	n/a	n/a	n/a	n/a	n/a
2865889	FFR_REC_WORD	wordpools/wasnorm_wordpool_less_exclusions.txt	LTP275	ltpFR	2	n/a	-1	BOUILLON	154	n/a	n/a	-1	n/a	n/a	n/a	n/a	n/a
2870279	FFR_REC_WORD	wordpools/wasnorm_wordpool_less_exclusions.txt	LTP275	ltpFR	2	n/a	0	MARINE	869	n/a	n/a	1	n/a	n/a	n/a	n/a	n/a
2872538	FFR_REC_WORD	wordpools/wasnorm_wordpool_less_exclusions.txt	LTP275	ltpFR	2	n/a	1	VETERAN	1561	n/a	n/a	1	n/a	n/a	n/a	n/a	n/a
2877437	FFR_REC_WORD	wordpools/wasnorm_wordpool_less_exclusions.txt	LTP275	ltpFR	2	n/a	1	FATHER	554	n/a	n/a	1	n/a	n/a	n/a	n/a	n/a
2881159	FFR_REC_WORD	wordpools/wasnorm_wordpool_less_exclusions.txt	LTP275	ltpFR	2	n/a	0	PRINCE	1124	n/a	n/a	1	n/a	n/a	n/a	n/a	n/a
2887939	FFR_REC_WORD	wordpools/wasnorm_wordpool_less_exclusions.txt	LTP275	ltpFR	2	n/a	1	CHAMPAGNE	278	n/a	n/a	0	n/a	n/a	n/a	n/a	n/a
2888896	FFR_REC_WORD	wordpools/wasnorm_wordpool_less_exclusions.txt	LTP275	ltpFR	2	n/a	n/a	SOFTBALL	1343	n/a	n/a	n/a	n/a	n/a	n/a	n/a	n/a
2889869	FFR_REC_WORD	wordpools/wasnorm_wordpool_less_exclusions.txt	LTP275	ltpFR	2	n/a	1	PRUNE	1134	n/a	n/a	1	n/a	n/a	n/a	n/a	n/a
2898983	FFR_REC_WORD	wordpools/wasnorm_wordpool_less_exclusions.txt	LTP275	ltpFR	2	n/a	0	DOLPHIN	483	n/a	n/a	1	n/a	n/a	n/a	n/a	n/a
2899752	FFR_REC_WORD	wordpools/wasnorm_wordpool_less_exclusions.txt	LTP275	ltpFR	2	n/a	1	WAVE	1596	n/a	n/a	0	n/a	n/a	n/a	n/a	n/a
2900540	FFR_REC_WORD	wordpools/wasnorm_wordpool_less_exclusions.txt	LTP275	ltpFR	2	n/a	0	CYCLONE	431	n/a	n/a	1	n/a	n/a	n/a	n/a	n/a
2908611	FFR_REC_WORD	wordpools/wasnorm_wordpool_less_exclusions.txt	LTP275	ltpFR	2	n/a	0	LEOPARD	812	n/a	n/a	1	n/a	n/a	n/a	n/a	n/a
2911600	FFR_REC_WORD	wordpools/wasnorm_wordpool_less_exclusions.txt	LTP275	ltpFR	2	n/a	-1	RAM	1165	n/a	n/a	-1	n/a	n/a	n/a	n/a	n/a
2914024	FFR_REC_WORD	wordpools/wasnorm_wordpool_less_exclusions.txt	LTP275	ltpFR	2	n/a	-1	CLARINET	317	n/a	n/a	-1	n/a	n/a	n/a	n/a	n/a
2915690	FFR_REC_WORD	wordpools/wasnorm_wordpool_less_exclusions.txt	LTP275	ltpFR	2	n/a	-1	OX	994	n/a	n/a	-1	n/a	n/a	n/a	n/a	n/a
2917012	FFR_REC_WORD	wordpools/wasnorm_wordpool_less_exclusions.txt	LTP275	ltpFR	2	n/a	1	CATTLE	261	n/a	n/a	1	n/a	n/a	n/a	n/a	n/a
2918329	FFR_REC_WORD	wordpools/wasnorm_wordpool_less_exclusions.txt	LTP275	ltpFR	2	n/a	1	DOG	480	n/a	n/a	1	n/a	n/a	n/a	n/a	n/a
2919337	FFR_REC_WORD	wordpools/wasnorm_wordpool_less_exclusions.txt	LTP275	ltpFR	2	n/a	1	FOX	598	n/a	n/a	1	n/a	n/a	n/a	n/a	n/a
2920704	FFR_REC_WORD	wordpools/wasnorm_wordpool_less_exclusions.txt	LTP275	ltpFR	2	n/a	1	COLT	349	n/a	n/a	1	n/a	n/a	n/a	n/a	n/a
2922016	FFR_REC_WORD	wordpools/wasnorm_wordpool_less_exclusions.txt	LTP275	ltpFR	2	n/a	1	GANG	619	n/a	n/a	1	n/a	n/a	n/a	n/a	n/a
2927798	FFR_REC_WORD	wordpools/wasnorm_wordpool_less_exclusions.txt	LTP275	ltpFR	2	n/a	1	VILLAGE	1566	n/a	n/a	0	n/a	n/a	n/a	n/a	n/a
2928930	FFR_REC_WORD	wordpools/wasnorm_wordpool_less_exclusions.txt	LTP275	ltpFR	2	n/a	n/a	COMMUNITY	356	n/a	n/a	n/a	n/a	n/a	n/a	n/a	n/a
2930068	FFR_REC_WORD	wordpools/wasnorm_wordpool_less_exclusions.txt	LTP275	ltpFR	2	n/a	1	SOCIETY	1338	n/a	n/a	0	n/a	n/a	n/a	n/a	n/a
2931619	FFR_REC_WORD	wordpools/wasnorm_wordpool_less_exclusions.txt	LTP275	ltpFR	2	n/a	1	MOUNTAIN	924	n/a	n/a	0	n/a	n/a	n/a	n/a	n/a
2932896	FFR_REC_WORD	wordpools/wasnorm_wordpool_less_exclusions.txt	LTP275	ltpFR	2	n/a	1	CANYON	235	n/a	n/a	0	n/a	n/a	n/a	n/a	n/a
2934318	FFR_REC_WORD	wordpools/wasnorm_wordpool_less_exclusions.txt	LTP275	ltpFR	2	n/a	1	TRENCH	1503	n/a	n/a	0	n/a	n/a	n/a	n/a	n/a
2936528	FFR_REC_WORD	wordpools/wasnorm_wordpool_less_exclusions.txt	LTP275	ltpFR	2	n/a	1	CAMEL	223	n/a	n/a	1	n/a	n/a	n/a	n/a	n/a
2937875	FFR_REC_WORD	wordpools/wasnorm_wordpool_less_exclusions.txt	LTP275	ltpFR	2	n/a	1	LAMB	797	n/a	n/a	1	n/a	n/a	n/a	n/a	n/a
2939062	FFR_REC_WORD	wordpools/wasnorm_wordpool_less_exclusions.txt	LTP275	ltpFR	2	n/a	1	CHIPMUNK	304	n/a	n/a	1	n/a	n/a	n/a	n/a	n/a
2940961	FFR_REC_WORD	wordpools/wasnorm_wordpool_less_exclusions.txt	LTP275	ltpFR	2	n/a	1	SNACK	1331	n/a	n/a	0	n/a	n/a	n/a	n/a	n/a
2942395	FFR_REC_WORD	wordpools/wasnorm_wordpool_less_exclusions.txt	LTP275	ltpFR	2	n/a	1	CHIME	300	n/a	n/a	0	n/a	n/a	n/a	n/a	n/a
2943572	FFR_REC_WORD	wordpools/wasnorm_wordpool_less_exclusions.txt	LTP275	ltpFR	2	n/a	1	DESIGNER	451	n/a	n/a	1	n/a	n/a	n/a	n/a	n/a
2945583	FFR_REC_WORD	wordpools/wasnorm_wordpool_less_exclusions.txt	LTP275	ltpFR	2	n/a	1	KNUCKLE	789	n/a	n/a	1	n/a	n/a	n/a	n/a	n/a
2947982	FFR_REC_WORD	wordpools/wasnorm_wordpool_less_exclusions.txt	LTP275	ltpFR	2	n/a	-1	BLUEPRINT	142	n/a	n/a	-1	n/a	n/a	n/a	n/a	n/a
2950716	FFR_REC_WORD	wordpools/wasnorm_wordpool_less_exclusions.txt	LTP275	ltpFR	2	n/a	1	WHIP	1604	n/a	n/a	0	n/a	n/a	n/a	n/a	n/a
2952148	FFR_REC_WORD	wordpools/wasnorm_wordpool_less_exclusions.txt	LTP275	ltpFR	2	n/a	1	TABLE	1426	n/a	n/a	0	n/a	n/a	n/a	n/a	n/a
2956662	FFR_REC_WORD	wordpools/wasnorm_wordpool_less_exclusions.txt	LTP275	ltpFR	2	n/a	1	CREVICE	405	n/a	n/a	0	n/a	n/a	n/a	n/a	n/a
2963352	FFR_REC_WORD	wordpools/wasnorm_wordpool_less_exclusions.txt	LTP275	ltpFR	2	n/a	-1	BABY	64	n/a	n/a	-1	n/a	n/a	n/a	n/a	n/a
2964569	FFR_REC_WORD	wordpools/wasnorm_wordpool_less_exclusions.txt	LTP275	ltpFR	2	n/a	-1	BASSINET	97	n/a	n/a	-1	n/a	n/a	n/a	n/a	n/a
2965951	FFR_REC_WORD	wordpools/wasnorm_wordpool_less_exclusions.txt	LTP275	ltpFR	2	n/a	-1	MOTHER	921	n/a	n/a	-1	n/a	n/a	n/a	n/a	n/a
2968381	FFR_REC_WORD	wordpools/wasnorm_wordpool_less_exclusions.txt	LTP275	ltpFR	2	n/a	-1	DECK	443	n/a	n/a	-1	n/a	n/a	n/a	n/a	n/a
2969478	FFR_REC_WORD	wordpools/wasnorm_wordpool_less_exclusions.txt	LTP275	ltpFR	2	n/a	-1	DOCK	477	n/a	n/a	-1	n/a	n/a	n/a	n/a	n/a
2970551	FFR_REC_WORD	wordpools/wasnorm_wordpool_less_exclusions.txt	LTP275	ltpFR	2	n/a	-1	GARDEN	623	n/a	n/a	-1	n/a	n/a	n/a	n/a	n/a
2971668	FFR_REC_WORD	wordpools/wasnorm_wordpool_less_exclusions.txt	LTP275	ltpFR	2	n/a	1	FARM	552	n/a	n/a	0	n/a	n/a	n/a	n/a	n/a
2974821	FFR_REC_WORD	wordpools/wasnorm_wordpool_less_exclusions.txt	LTP275	ltpFR	2	n/a	1	SEA	1259	n/a	n/a	0	n/a	n/a	n/a	n/a	n/a
2986500	FFR_REC_WORD	wordpools/wasnorm_wordpool_less_exclusions.txt	LTP275	ltpFR	2	n/a	-1	ROOF	1205	n/a	n/a	-1	n/a	n/a	n/a	n/a	n/a
2987866	FFR_REC_WORD	wordpools/wasnorm_wordpool_less_exclusions.txt	LTP275	ltpFR	2	n/a	-1	SHELTER	1282	n/a	n/a	-1	n/a	n/a	n/a	n/a	n/a
2989163	FFR_REC_WORD	wordpools/wasnorm_wordpool_less_exclusions.txt	LTP275	ltpFR	2	n/a	-1	VAN	1548	n/a	n/a	-1	n/a	n/a	n/a	n/a	n/a
2990590	FFR_REC_WORD	wordpools/wasnorm_wordpool_less_exclusions.txt	LTP275	ltpFR	2	n/a	-1	BUS	201	n/a	n/a	-1	n/a	n/a	n/a	n/a	n/a
2995100	FFR_REC_WORD	wordpools/wasnorm_wordpool_less_exclusions.txt	LTP275	ltpFR	2	n/a	-1	ORCHESTRA	981	n/a	n/a	-1	n/a	n/a	n/a	n/a	n/a
3001595	FFR_REC_WORD	wordpools/wasnorm_wordpool_less_exclusions.txt	LTP275	ltpFR	2	n/a	-1	VISITOR	1573	n/a	n/a	-1	n/a	n/a	n/a	n/a	n/a
3002713	FFR_REC_WORD	wordpools/wasnorm_wordpool_less_exclusions.txt	LTP275	ltpFR	2	n/a	-1	STAKE	1368	n/a	n/a	-1	n/a	n/a	n/a	n/a	n/a
3004214	FFR_REC_WORD	wordpools/wasnorm_wordpool_less_exclusions.txt	LTP275	ltpFR	2	n/a	-1	STOMACH	1384	n/a	n/a	-1	n/a	n/a	n/a	n/a	n/a
3008315	FFR_REC_WORD	wordpools/wasnorm_wordpool_less_exclusions.txt	LTP275	ltpFR	2	n/a	-1	RUG	1215	n/a	n/a	-1	n/a	n/a	n/a	n/a	n/a
3009587	FFR_REC_WORD	wordpools/wasnorm_wordpool_less_exclusions.txt	LTP275	ltpFR	2	n/a	-1	WAX	1597	n/a	n/a	-1	n/a	n/a	n/a	n/a	n/a
3021285	FFR_REC_WORD	wordpools/wasnorm_wordpool_less_exclusions.txt	LTP275	ltpFR	2	n/a	0	ROBE	1198	n/a	n/a	1	n/a	n/a	n/a	n/a	n/a
3024932	FFR_REC_WORD	wordpools/wasnorm_wordpool_less_exclusions.txt	LTP275	ltpFR	2	n/a	-1	CHIEF	298	n/a	n/a	-1	n/a	n/a	n/a	n/a	n/a
3026668	FFR_REC_WORD	wordpools/wasnorm_wordpool_less_exclusions.txt	LTP275	ltpFR	2	n/a	-1	LEADER	807	n/a	n/a	-1	n/a	n/a	n/a	n/a	n/a
3028604	FFR_REC_WORD	wordpools/wasnorm_wordpool_less_exclusions.txt	LTP275	ltpFR	2	n/a	-1	ENGINE	535	n/a	n/a	-1	n/a	n/a	n/a	n/a	n/a
3030834	FFR_REC_WORD	wordpools/wasnorm_wordpool_less_exclusions.txt	LTP275	ltpFR	2	n/a	-1	DEPUTY	450	n/a	n/a	-1	n/a	n/a	n/a	n/a	n/a
3032620	FFR_REC_WORD	wordpools/wasnorm_wordpool_less_exclusions.txt	LTP275	ltpFR	2	n/a	0	SHERIFF	1284	n/a	n/a	1	n/a	n/a	n/a	n/a	n/a
3037758	FFR_REC_WORD	wordpools/wasnorm_wordpool_less_exclusions.txt	LTP275	ltpFR	2	n/a	-1	NOVEL	960	n/a	n/a	-1	n/a	n/a	n/a	n/a	n/a
3041060	FFR_REC_WORD	wordpools/wasnorm_wordpool_less_exclusions.txt	LTP275	ltpFR	2	n/a	-1	MUG	930	n/a	n/a	-1	n/a	n/a	n/a	n/a	n/a
3067700	FFR_REC_WORD	wordpools/wasnorm_wordpool_less_exclusions.txt	LTP275	ltpFR	2	n/a	-1	TUBA	1515	n/a	n/a	-1	n/a	n/a	n/a	n/a	n/a
3069840	FFR_REC_WORD	wordpools/wasnorm_wordpool_less_exclusions.txt	LTP275	ltpFR	2	n/a	-1	RAM	1165	n/a	n/a	-1	n/a	n/a	n/a	n/a	n/a
3075806	FFR_REC_WORD	wordpools/wasnorm_wordpool_less_exclusions.txt	LTP275	ltpFR	2	n/a	0	WALNUT	1584	n/a	n/a	0	n/a	n/a	n/a	n/a	n/a
3083619	FFR_REC_WORD	wordpools/wasnorm_wordpool_less_exclusions.txt	LTP275	ltpFR	2	n/a	0	SHELL	1281	n/a	n/a	0	n/a	n/a	n/a	n/a	n/a
3084911	FFR_REC_WORD	wordpools/wasnorm_wordpool_less_exclusions.txt	LTP275	ltpFR	2	n/a	0	PAN	1008	n/a	n/a	0	n/a	n/a	n/a	n/a	n/a
3086482	FFR_REC_WORD	wordpools/wasnorm_wordpool_less_exclusions.txt	LTP275	ltpFR	2	n/a	0	DISH	474	n/a	n/a	0	n/a	n/a	n/a	n/a	n/a
3091581	FFR_REC_WORD	wordpools/wasnorm_wordpool_less_exclusions.txt	LTP275	ltpFR	2	n/a	0	RECEPTIONIST	1174	n/a	n/a	1	n/a	n/a	n/a	n/a	n/a
3092938	FFR_REC_WORD	wordpools/wasnorm_wordpool_less_exclusions.txt	LTP275	ltpFR	2	n/a	0	WRITER	1627	n/a	n/a	1	n/a	n/a	n/a	n/a	n/a
3094180	FFR_REC_WORD	wordpools/wasnorm_wordpool_less_exclusions.txt	LTP275	ltpFR	2	n/a	1	PUBLISHER	1137	n/a	n/a	1	n/a	n/a	n/a	n/a	n/a
3095587	FFR_REC_WORD	wordpools/wasnorm_wordpool_less_exclusions.txt	LTP275	ltpFR	2	n/a	0	EDITOR	516	n/a	n/a	1	n/a	n/a	n/a	n/a	n/a
3097038	FFR_REC_WORD	wordpools/wasnorm_wordpool_less_exclusions.txt	LTP275	ltpFR	2	n/a	0	CAGE	218	n/a	n/a	1	n/a	n/a	n/a	n/a	n/a
3098460	FFR_REC_WORD	wordpools/wasnorm_wordpool_less_exclusions.txt	LTP275	ltpFR	2	n/a	-1	RUG	1215	n/a	n/a	-1	n/a	n/a	n/a	n/a	n/a
3100141	FFR_REC_WORD	wordpools/wasnorm_wordpool_less_exclusions.txt	LTP275	ltpFR	2	n/a	0	CEILING	265	n/a	n/a	1	n/a	n/a	n/a	n/a	n/a
3102187	FFR_REC_WORD	wordpools/wasnorm_wordpool_less_exclusions.txt	LTP275	ltpFR	2	n/a	0	CARPET	247	n/a	n/a	1	n/a	n/a	n/a	n/a	n/a
3105543	FFR_REC_WORD	wordpools/wasnorm_wordpool_less_exclusions.txt	LTP275	ltpFR	2	n/a	0	SPINE	1353	n/a	n/a	1	n/a	n/a	n/a	n/a	n/a
3108028	FFR_REC_WORD	wordpools/wasnorm_wordpool_less_exclusions.txt	LTP275	ltpFR	2	n/a	0	OCTOPUS	971	n/a	n/a	1	n/a	n/a	n/a	n/a	n/a
3135117	FFR_REC_WORD	wordpools/wasnorm_wordpool_less_exclusions.txt	LTP275	ltpFR	2	n/a	1	LIMB	822	n/a	n/a	1	n/a	n/a	n/a	n/a	n/a
3136279	FFR_REC_WORD	wordpools/wasnorm_wordpool_less_exclusions.txt	LTP275	ltpFR	2	n/a	1	APPENDAGE	32	n/a	n/a	1	n/a	n/a	n/a	n/a	n/a
3143103	FFR_REC_WORD	wordpools/wasnorm_wordpool_less_exclusions.txt	LTP275	ltpFR	2	n/a	1	SNOB	1335	n/a	n/a	0	n/a	n/a	n/a	n/a	n/a
3376172	REC_START	n/a	LTP275	ltpFR	2	1	n/a	n/a	n/a	n/a	n/a	n/a	n/a	n/a	n/a	n/a	n/a
3376232	RECOG_TARGET	n/a	LTP275	ltpFR	2	1	0	MARBLE	867	1	5	0	n/a	n/a	n/a	n/a	n/a
3378032	RECOG_RESP	n/a	LTP275	ltpFR	2	1	0	MARBLE	867	1	n/a	0	n/a	n/a	n/a	n/a	n/a
3380992	RECOG_CONF	n/a	LTP275	ltpFR	2	1	0	MARBLE	867	n/a	5	0	n/a	n/a	n/a	n/a	n/a
3382728	RECOG_TARGET	n/a	LTP275	ltpFR	2	1	1	BIKE	125	1	1	0	n/a	n/a	n/a	n/a	n/a
3384237	RECOG_RESP	n/a	LTP275	ltpFR	2	1	1	BIKE	125	1	n/a	0	n/a	n/a	n/a	n/a	n/a
3385612	RECOG_CONF	n/a	LTP275	ltpFR	2	1	1	BIKE	125	n/a	1	0	n/a	n/a	n/a	n/a	n/a
3387396	RECOG_TARGET	n/a	LTP275	ltpFR	2	1	1	GLASSES	640	0	2	0	n/a	n/a	n/a	n/a	n/a
3388237	RECOG_RESP	n/a	LTP275	ltpFR	2	1	1	GLASSES	640	0	n/a	0	n/a	n/a	n/a	n/a	n/a
3389352	RECOG_CONF	n/a	LTP275	ltpFR	2	1	1	GLASSES	640	n/a	2	0	n/a	n/a	n/a	n/a	n/a
3391094	RECOG_TARGET	n/a	LTP275	ltpFR	2	1	-1	BLUEPRINT	142	1	5	-1	n/a	n/a	n/a	n/a	n/a
3391937	RECOG_RESP	n/a	LTP275	ltpFR	2	1	-1	BLUEPRINT	142	1	n/a	-1	n/a	n/a	n/a	n/a	n/a
3392942	RECOG_CONF	n/a	LTP275	ltpFR	2	1	-1	BLUEPRINT	142	n/a	5	-1	n/a	n/a	n/a	n/a	n/a
3394539	RECOG_TARGET	n/a	LTP275	ltpFR	2	1	-1	SHELTER	1282	1	5	-1	n/a	n/a	n/a	n/a	n/a
3395327	RECOG_RESP	n/a	LTP275	ltpFR	2	1	-1	SHELTER	1282	1	n/a	-1	n/a	n/a	n/a	n/a	n/a
3396382	RECOG_CONF	n/a	LTP275	ltpFR	2	1	-1	SHELTER	1282	n/a	5	-1	n/a	n/a	n/a	n/a	n/a
3397896	RECOG_TARGET	n/a	LTP275	ltpFR	2	1	1	PORK	1108	1	5	1	n/a	n/a	n/a	n/a	n/a
3398687	RECOG_RESP	n/a	LTP275	ltpFR	2	1	1	PORK	1108	1	n/a	1	n/a	n/a	n/a	n/a	n/a
3399892	RECOG_CONF	n/a	LTP275	ltpFR	2	1	1	PORK	1108	n/a	5	1	n/a	n/a	n/a	n/a	n/a
3401515	RECOG_TARGET	n/a	LTP275	ltpFR	2	1	0	MONGOOSE	909	1	5	1	n/a	n/a	n/a	n/a	n/a
3402227	RECOG_RESP	n/a	LTP275	ltpFR	2	1	0	MONGOOSE	909	1	n/a	1	n/a	n/a	n/a	n/a	n/a
3403292	RECOG_CONF	n/a	LTP275	ltpFR	2	1	0	MONGOOSE	909	n/a	5	1	n/a	n/a	n/a	n/a	n/a
3405091	RECOG_TARGET	n/a	LTP275	ltpFR	2	1	0	STRAWBERRY	1391	0	1	0	n/a	n/a	n/a	n/a	n/a
3406302	RECOG_RESP	n/a	LTP275	ltpFR	2	1	0	STRAWBERRY	1391	0	n/a	0	n/a	n/a	n/a	n/a	n/a
3406682	RECOG_CONF	n/a	LTP275	ltpFR	2	1	0	STRAWBERRY	1391	n/a	1	0	n/a	n/a	n/a	n/a	n/a
3408960	RECOG_TARGET	n/a	LTP275	ltpFR	2	1	-1	CLARINET	317	1	5	-1	n/a	n/a	n/a	n/a	n/a
3409777	RECOG_RESP	n/a	LTP275	ltpFR	2	1	-1	CLARINET	317	1	n/a	-1	n/a	n/a	n/a	n/a	n/a
3410772	RECOG_CONF	n/a	LTP275	ltpFR	2	1	-1	CLARINET	317	n/a	5	-1	n/a	n/a	n/a	n/a	n/a
3412423	RECOG_TARGET	n/a	LTP275	ltpFR	2	1	1	SEAGULL	1261	1	4	1	n/a	n/a	n/a	n/a	n/a
3413257	RECOG_RESP	n/a	LTP275	ltpFR	2	1	1	SEAGULL	1261	1	n/a	1	n/a	n/a	n/a	n/a	n/a
3414212	RECOG_CONF	n/a	LTP275	ltpFR	2	1	1	SEAGULL	1261	n/a	4	1	n/a	n/a	n/a	n/a	n/a
3415903	RECOG_TARGET	n/a	LTP275	ltpFR	2	1	1	WAVE	1596	1	5	0	n/a	n/a	n/a	n/a	n/a
3416547	RECOG_RESP	n/a	LTP275	ltpFR	2	1	1	WAVE	1596	1	n/a	0	n/a	n/a	n/a	n/a	n/a
3417512	RECOG_CONF	n/a	LTP275	ltpFR	2	1	1	WAVE	1596	n/a	5	0	n/a	n/a	n/a	n/a	n/a
3419250	RECOG_LURE	n/a	LTP275	ltpFR	2	1	n/a	CUE	422	0	2	n/a	n/a	n/a	n/a	n/a	n/a
3420302	RECOG_RESP	n/a	LTP275	ltpFR	2	1	n/a	CUE	422	0	n/a	n/a	n/a	n/a	n/a	n/a	n/a
3421312	RECOG_CONF	n/a	LTP275	ltpFR	2	1	n/a	CUE	422	n/a	2	n/a	n/a	n/a	n/a	n/a	n/a
3422996	RECOG_TARGET	n/a	LTP275	ltpFR	2	1	0	CYCLONE	431	1	5	1	n/a	n/a	n/a	n/a	n/a
3423802	RECOG_RESP	n/a	LTP275	ltpFR	2	1	0	CYCLONE	431	1	n/a	1	n/a	n/a	n/a	n/a	n/a
3424732	RECOG_CONF	n/a	LTP275	ltpFR	2	1	0	CYCLONE	431	n/a	5	1	n/a	n/a	n/a	n/a	n/a
3426560	RECOG_TARGET	n/a	LTP275	ltpFR	2	1	1	APPENDAGE	32	1	5	1	n/a	n/a	n/a	n/a	n/a
3427232	RECOG_RESP	n/a	LTP275	ltpFR	2	1	1	APPENDAGE	32	1	n/a	1	n/a	n/a	n/a	n/a	n/a
3428312	RECOG_CONF	n/a	LTP275	ltpFR	2	1	1	APPENDAGE	32	n/a	5	1	n/a	n/a	n/a	n/a	n/a
3429934	RECOG_TARGET	n/a	LTP275	ltpFR	2	1	1	COUGAR	387	1	1	1	n/a	n/a	n/a	n/a	n/a
3431677	RECOG_RESP	n/a	LTP275	ltpFR	2	1	1	COUGAR	387	1	n/a	1	n/a	n/a	n/a	n/a	n/a
3432522	RECOG_CONF	n/a	LTP275	ltpFR	2	1	1	COUGAR	387	n/a	1	1	n/a	n/a	n/a	n/a	n/a
3434484	RECOG_TARGET	n/a	LTP275	ltpFR	2	1	-1	DECK	443	1	4	-1	n/a	n/a	n/a	n/a	n/a
3435367	RECOG_RESP	n/a	LTP275	ltpFR	2	1	-1	DECK	443	1	n/a	-1	n/a	n/a	n/a	n/a	n/a
3436252	RECOG_CONF	n/a	LTP275	ltpFR	2	1	-1	DECK	443	n/a	4	-1	n/a	n/a	n/a	n/a	n/a
3438115	RECOG_LURE	n/a	LTP275	ltpFR	2	1	n/a	CHISEL	305	0	4	n/a	n/a	n/a	n/a	n/a	n/a
3438962	RECOG_RESP	n/a	LTP275	ltpFR	2	1	n/a	CHISEL	305	0	n/a	n/a	n/a	n/a	n/a	n/a	n/a
3439842	RECOG_CONF	n/a	LTP275	ltpFR	2	1	n/a	CHISEL	305	n/a	4	n/a	n/a	n/a	n/a	n/a	n/a
3441695	RECOG_TARGET	n/a	LTP275	ltpFR	2	1	1	PLUMBER	1091	0	2	1	n/a	n/a	n/a	n/a	n/a
3442622	RECOG_RESP	n/a	LTP275	ltpFR	2	1	1	PLUMBER	1091	0	n/a	1	n/a	n/a	n/a	n/a	n/a
3443502	RECOG_CONF	n/a	LTP275	ltpFR	2	1	1	PLUMBER	1091	n/a	2	1	n/a	n/a	n/a	n/a	n/a
3445175	RECOG_TARGET	n/a	LTP275	ltpFR	2	1	-1	GLUE	643	1	3	-1	n/a	n/a	n/a	n/a	n/a
3446332	RECOG_RESP	n/a	LTP275	ltpFR	2	1	-1	GLUE	643	1	n/a	-1	n/a	n/a	n/a	n/a	n/a
3447142	RECOG_CONF	n/a	LTP275	ltpFR	2	1	-1	GLUE	643	n/a	3	-1	n/a	n/a	n/a	n/a	n/a
3448972	RECOG_TARGET	n/a	LTP275	ltpFR	2	1	0	CAR	241	1	2	1	n/a	n/a	n/a	n/a	n/a
3449937	RECOG_RESP	n/a	LTP275	ltpFR	2	1	0	CAR	241	1	n/a	1	n/a	n/a	n/a	n/a	n/a
3450822	RECOG_CONF	n/a	LTP275	ltpFR	2	1	0	CAR	241	n/a	2	1	n/a	n/a	n/a	n/a	n/a
3459443	REC_START	n/a	LTP275	ltpFR	2	2	n/a	n/a	n/a	n/a	n/a	n/a	n/a	n/a	n/a	n/a	n/a
3459501	RECOG_TARGET	n/a	LTP275	ltpFR	2	2	0	DRIVER	499	1	1	1	n/a	n/a	n/a	n/a	n/a
3461078	RECOG_RESP	n/a	LTP275	ltpFR	2	2	0	DRIVER	499	1	n/a	1	n/a	n/a	n/a	n/a	n/a
3462073	RECOG_CONF	n/a	LTP275	ltpFR	2	2	0	DRIVER	499	n/a	1	1	n/a	n/a	n/a	n/a	n/a
3464001	RECOG_TARGET	n/a	LTP275	ltpFR	2	2	1	STUDENT	1395	1	1	1	n/a	n/a	n/a	n/a	n/a
3465123	RECOG_RESP	n/a	LTP275	ltpFR	2	2	1	STUDENT	1395	1	n/a	1	n/a	n/a	n/a	n/a	n/a
3465553	RECOG_CONF	n/a	LTP275	ltpFR	2	2	1	STUDENT	1395	n/a	1	1	n/a	n/a	n/a	n/a	n/a
3467899	RECOG_TARGET	n/a	LTP275	ltpFR	2	2	-1	LEADER	807	1	4	-1	n/a	n/a	n/a	n/a	n/a
3468598	RECOG_RESP	n/a	LTP275	ltpFR	2	2	-1	LEADER	807	1	n/a	-1	n/a	n/a	n/a	n/a	n/a
3469553	RECOG_CONF	n/a	LTP275	ltpFR	2	2	-1	LEADER	807	n/a	4	-1	n/a	n/a	n/a	n/a	n/a
3471330	RECOG_TARGET	n/a	LTP275	ltpFR	2	2	1	SEA	1259	1	5	0	n/a	n/a	n/a	n/a	n/a
3471973	RECOG_RESP	n/a	LTP275	ltpFR	2	2	1	SEA	1259	1	n/a	0	n/a	n/a	n/a	n/a	n/a
3472953	RECOG_CONF	n/a	LTP275	ltpFR	2	2	1	SEA	1259	n/a	5	0	n/a	n/a	n/a	n/a	n/a
3474808	RECOG_TARGET	n/a	LTP275	ltpFR	2	2	-1	FAUCET	555	0	3	-1	n/a	n/a	n/a	n/a	n/a
3475603	RECOG_RESP	n/a	LTP275	ltpFR	2	2	-1	FAUCET	555	0	n/a	-1	n/a	n/a	n/a	n/a	n/a
3476393	RECOG_CONF	n/a	LTP275	ltpFR	2	2	-1	FAUCET	555	n/a	3	-1	n/a	n/a	n/a	n/a	n/a
3478334	RECOG_LURE	n/a	LTP275	ltpFR	2	2	n/a	CHIMNEY	301	0	2	n/a	n/a	n/a	n/a	n/a	n/a
3479438	RECOG_RESP	n/a	LTP275	ltpFR	2	2	n/a	CHIMNEY	301	0	n/a	n/a	n/a	n/a	n/a	n/a	n/a
3480363	RECOG_CONF	n/a	LTP275	ltpFR	2	2	n/a	CHIMNEY	301	n/a	2	n/a	n/a	n/a	n/a	n/a	n/a
3482137	RECOG_TARGET	n/a	LTP275	ltpFR	2	2	-1	RECORD	1176	1	1	-1	n/a	n/a	n/a	n/a	n/a
3483138	RECOG_RESP	n/a	LTP275	ltpFR	2	2	-1	RECORD	1176	1	n/a	-1	n/a	n/a	n/a	n/a	n/a
3483583	RECOG_CONF	n/a	LTP275	ltpFR	2	2	-1	RECORD	1176	n/a	1	-1	n/a	n/a	n/a	n/a	n/a
3485816	RECOG_TARGET	n/a	LTP275	ltpFR	2	2	0	ZEBRA	1635	1	4	1	n/a	n/a	n/a	n/a	n/a
3486478	RECOG_RESP	n/a	LTP275	ltpFR	2	2	0	ZEBRA	1635	1	n/a	1	n/a	n/a	n/a	n/a	n/a
3487483	RECOG_CONF	n/a	LTP275	ltpFR	2	2	0	ZEBRA	1635	n/a	4	1	n/a	n/a	n/a	n/a	n/a
3489073	RECOG_TARGET	n/a	LTP275	ltpFR	2	2	0	BUTTER	205	1	5	0	n/a	n/a	n/a	n/a	n/a
3489813	RECOG_RESP	n/a	LTP275	ltpFR	2	2	0	BUTTER	205	1	n/a	0	n/a	n/a	n/a	n/a	n/a
3490693	RECOG_CONF	n/a	LTP275	ltpFR	2	2	0	BUTTER	205	n/a	5	0	n/a	n/a	n/a	n/a	n/a
3492520	RECOG_TARGET	n/a	LTP275	ltpFR	2	2	0	BATTERY	101	0	1	0	n/a	n/a	n/a	n/a	n/a
3493728	RECOG_RESP	n/a	LTP275	ltpFR	2	2	0	BATTERY	101	0	n/a	0	n/a	n/a	n/a	n/a	n/a
3494113	RECOG_CONF	n/a	LTP275	ltpFR	2	2	0	BATTERY	101	n/a	1	0	n/a	n/a	n/a	n/a	n/a
3496724	RECOG_TARGET	n/a	LTP275	ltpFR	2	2	1	PRUNE	1134	1	5	1	n/a	n/a	n/a	n/a	n/a
3497438	RECOG_RESP	n/a	LTP275	ltpFR	2	2	1	PRUNE	1134	1	n/a	1	n/a	n/a	n/a	n/a	n/a
3498343	RECOG_CONF	n/a	LTP275	ltpFR	2	2	1	PRUNE	1134	n/a	5	1	n/a	n/a	n/a	n/a	n/a
3500233	RECOG_TARGET	n/a	LTP275	ltpFR	2	2	0	BROOK	177	1	5	1	n/a	n/a	n/a	n/a	n/a
3500893	RECOG_RESP	n/a	LTP275	ltpFR	2	2	0	BROOK	177	1	n/a	1	n/a	n/a	n/a	n/a	n/a
3501873	RECOG_CONF	n/a	LTP275	ltpFR	2	2	0	BROOK	177	n/a	5	1	n/a	n/a	n/a	n/a	n/a
3503544	RECOG_TARGET	n/a	LTP275	ltpFR	2	2	-1	SUSPECT	1415	1	2	-1	n/a	n/a	n/a	n/a	n/a
3504633	RECOG_RESP	n/a	LTP275	ltpFR	2	2	-1	SUSPECT	1415	1	n/a	-1	n/a	n/a	n/a	n/a	n/a
3505633	RECOG_CONF	n/a	LTP275	ltpFR	2	2	-1	SUSPECT	1415	n/a	2	-1	n/a	n/a	n/a	n/a	n/a
3507181	RECOG_TARGET	n/a	LTP275	ltpFR	2	2	1	CAMEL	223	1	5	1	n/a	n/a	n/a	n/a	n/a
3507878	RECOG_RESP	n/a	LTP275	ltpFR	2	2	1	CAMEL	223	1	n/a	1	n/a	n/a	n/a	n/a	n/a
3508803	RECOG_CONF	n/a	LTP275	ltpFR	2	2	1	CAMEL	223	n/a	5	1	n/a	n/a	n/a	n/a	n/a
3510392	RECOG_TARGET	n/a	LTP275	ltpFR	2	2	1	VEIN	1554	1	3	1	n/a	n/a	n/a	n/a	n/a
3511193	RECOG_RESP	n/a	LTP275	ltpFR	2	2	1	VEIN	1554	1	n/a	1	n/a	n/a	n/a	n/a	n/a
3512133	RECOG_CONF	n/a	LTP275	ltpFR	2	2	1	VEIN	1554	n/a	3	1	n/a	n/a	n/a	n/a	n/a
3513705	RECOG_LURE	n/a	LTP275	ltpFR	2	2	n/a	OVEN	991	0	1	n/a	n/a	n/a	n/a	n/a	n/a
3514793	RECOG_RESP	n/a	LTP275	ltpFR	2	2	n/a	OVEN	991	0	n/a	n/a	n/a	n/a	n/a	n/a	n/a
3515653	RECOG_CONF	n/a	LTP275	ltpFR	2	2	n/a	OVEN	991	n/a	1	n/a	n/a	n/a	n/a	n/a	n/a
3517303	RECOG_LURE	n/a	LTP275	ltpFR	2	2	n/a	LINEN	825	0	2	n/a	n/a	n/a	n/a	n/a	n/a
3518208	RECOG_RESP	n/a	LTP275	ltpFR	2	2	n/a	LINEN	825	0	n/a	n/a	n/a	n/a	n/a	n/a	n/a
3519413	RECOG_CONF	n/a	LTP275	ltpFR	2	2	n/a	LINEN	825	n/a	2	n/a	n/a	n/a	n/a	n/a	n/a
3521218	RECOG_TARGET	n/a	LTP275	ltpFR	2	2	-1	NEUTRON	947	1	5	-1	n/a	n/a	n/a	n/a	n/a
3522113	RECOG_RESP	n/a	LTP275	ltpFR	2	2	-1	NEUTRON	947	1	n/a	-1	n/a	n/a	n/a	n/a	n/a
3522933	RECOG_CONF	n/a	LTP275	ltpFR	2	2	-1	NEUTRON	947	n/a	5	-1	n/a	n/a	n/a	n/a	n/a
3524590	RECOG_TARGET	n/a	LTP275	ltpFR	2	2	0	OCTOPUS	971	1	5	1	n/a	n/a	n/a	n/a	n/a
3525318	RECOG_RESP	n/a	LTP275	ltpFR	2	2	0	OCTOPUS	971	1	n/a	1	n/a	n/a	n/a	n/a	n/a
3526323	RECOG_CONF	n/a	LTP275	ltpFR	2	2	0	OCTOPUS	971	n/a	5	1	n/a	n/a	n/a	n/a	n/a
3527775	RECOG_TARGET	n/a	LTP275	ltpFR	2	2	0	LAPEL	800	1	4	0	n/a	n/a	n/a	n/a	n/a
3528653	RECOG_RESP	n/a	LTP275	ltpFR	2	2	0	LAPEL	800	1	n/a	0	n/a	n/a	n/a	n/a	n/a
3529623	RECOG_CONF	n/a	LTP275	ltpFR	2	2	0	LAPEL	800	n/a	4	0	n/a	n/a	n/a	n/a	n/a
3537118	REC_START	n/a	LTP275	ltpFR	2	3	n/a	n/a	n/a	n/a	n/a	n/a	n/a	n/a	n/a	n/a	n/a
3537178	RECOG_TARGET	n/a	LTP275	ltpFR	2	3	1	MITTEN	902	1	3	0	n/a	n/a	n/a	n/a	n/a
3538188	RECOG_RESP	n/a	LTP275	ltpFR	2	3	1	MITTEN	902	1	n/a	0	n/a	n/a	n/a	n/a	n/a
3539298	RECOG_CONF	n/a	LTP275	ltpFR	2	3	1	MITTEN	902	n/a	3	0	n/a	n/a	n/a	n/a	n/a
3540924	RECOG_TARGET	n/a	LTP275	ltpFR	2	3	1	SUBWAY	1400	1	4	0	n/a	n/a	n/a	n/a	n/a
3541628	RECOG_RESP	n/a	LTP275	ltpFR	2	3	1	SUBWAY	1400	1	n/a	0	n/a	n/a	n/a	n/a	n/a
3542568	RECOG_CONF	n/a	LTP275	ltpFR	2	3	1	SUBWAY	1400	n/a	4	0	n/a	n/a	n/a	n/a	n/a
3544171	RECOG_TARGET	n/a	LTP275	ltpFR	2	3	0	WALNUT	1584	1	5	0	n/a	n/a	n/a	n/a	n/a
3544808	RECOG_RESP	n/a	LTP275	ltpFR	2	3	0	WALNUT	1584	1	n/a	0	n/a	n/a	n/a	n/a	n/a
3545778	RECOG_CONF	n/a	LTP275	ltpFR	2	3	0	WALNUT	1584	n/a	5	0	n/a	n/a	n/a	n/a	n/a
3547393	RECOG_TARGET	n/a	LTP275	ltpFR	2	3	0	GUARDIAN	668	1	3	1	n/a	n/a	n/a	n/a	n/a
3548143	RECOG_RESP	n/a	LTP275	ltpFR	2	3	0	GUARDIAN	668	1	n/a	1	n/a	n/a	n/a	n/a	n/a
3549058	RECOG_CONF	n/a	LTP275	ltpFR	2	3	0	GUARDIAN	668	n/a	3	1	n/a	n/a	n/a	n/a	n/a
3550795	RECOG_TARGET	n/a	LTP275	ltpFR	2	3	1	DOG	480	1	4	1	n/a	n/a	n/a	n/a	n/a
3551498	RECOG_RESP	n/a	LTP275	ltpFR	2	3	1	DOG	480	1	n/a	1	n/a	n/a	n/a	n/a	n/a
3552438	RECOG_CONF	n/a	LTP275	ltpFR	2	3	1	DOG	480	n/a	4	1	n/a	n/a	n/a	n/a	n/a
3554209	RECOG_TARGET	n/a	LTP275	ltpFR	2	3	-1	MUG	930	1	4	-1	n/a	n/a	n/a	n/a	n/a
3554828	RECOG_RESP	n/a	LTP275	ltpFR	2	3	-1	MUG	930	1	n/a	-1	n/a	n/a	n/a	n/a	n/a
3555838	RECOG_CONF	n/a	LTP275	ltpFR	2	3	-1	MUG	930	n/a	4	-1	n/a	n/a	n/a	n/a	n/a
3557481	RECOG_LURE	n/a	LTP275	ltpFR	2	3	n/a	SCARF	1246	0	1	n/a	n/a	n/a	n/a	n/a	n/a
3558123	RECOG_RESP_VV	n/a	LTP275	ltpFR	2	3	n/a	SCARF	1246	1	n/a	n/a	n/a	n/a	n/a	n/a	n/a
3561523	RECOG_RESP	n/a	LTP275	ltpFR	2	3	n/a	SCARF	1246	0	n/a	n/a	n/a	n/a	n/a	n/a	n/a
3562625	RECOG_CONF	n/a	LTP275	ltpFR	2	3	n/a	SCARF	1246	n/a	1	n/a	n/a	n/a	n/a	n/a	n/a
3564341	RECOG_LURE	n/a	LTP275	ltpFR	2	3	n/a	CABBAGE	210	0	3	n/a	n/a	n/a	n/a	n/a	n/a
3565203	RECOG_RESP	n/a	LTP275	ltpFR	2	3	n/a	CABBAGE	210	0	n/a	n/a	n/a	n/a	n/a	n/a	n/a
3566118	RECOG_CONF	n/a	LTP275	ltpFR	2	3	n/a	CABBAGE	210	n/a	3	n/a	n/a	n/a	n/a	n/a	n/a
3568089	RECOG_TARGET	n/a	LTP275	ltpFR	2	3	0	PARROT	1015	1	2	0	n/a	n/a	n/a	n/a	n/a
3569233	RECOG_RESP	n/a	LTP275	ltpFR	2	3	0	PARROT	1015	1	n/a	0	n/a	n/a	n/a	n/a	n/a
3570078	RECOG_CONF	n/a	LTP275	ltpFR	2	3	0	PARROT	1015	n/a	2	0	n/a	n/a	n/a	n/a	n/a
3571874	RECOG_TARGET	n/a	LTP275	ltpFR	2	3	1	NAPKIN	937	0	1	0	n/a	n/a	n/a	n/a	n/a
3572728	RECOG_RESP	n/a	LTP275	ltpFR	2	3	1	NAPKIN	937	0	n/a	0	n/a	n/a	n/a	n/a	n/a
3573048	RECOG_CONF	n/a	LTP275	ltpFR	2	3	1	NAPKIN	937	n/a	1	0	n/a	n/a	n/a	n/a	n/a
3575316	RECOG_LURE	n/a	LTP275	ltpFR	2	3	n/a	FOSSIL	596	0	1	n/a	n/a	n/a	n/a	n/a	n/a
3576288	RECOG_RESP	n/a	LTP275	ltpFR	2	3	n/a	FOSSIL	596	0	n/a	n/a	n/a	n/a	n/a	n/a	n/a
3577058	RECOG_CONF	n/a	LTP275	ltpFR	2	3	n/a	FOSSIL	596	n/a	1	n/a	n/a	n/a	n/a	n/a	n/a
3578945	RECOG_TARGET	n/a	LTP275	ltpFR	2	3	-1	KEYBOARD	774	0	2	-1	n/a	n/a	n/a	n/a	n/a
3579768	RECOG_RESP	n/a	LTP275	ltpFR	2	3	-1	KEYBOARD	774	0	n/a	-1	n/a	n/a	n/a	n/a	n/a
3580618	RECOG_CONF	n/a	LTP275	ltpFR	2	3	-1	KEYBOARD	774	n/a	2	-1	n/a	n/a	n/a	n/a	n/a
3582314	RECOG_TARGET	n/a	LTP275	ltpFR	2	3	-1	GENERAL	630	0	1	-1	n/a	n/a	n/a	n/a	n/a
3583348	RECOG_RESP	n/a	LTP275	ltpFR	2	3	-1	GENERAL	630	0	n/a	-1	n/a	n/a	n/a	n/a	n/a
3584158	RECOG_CONF	n/a	LTP275	ltpFR	2	3	-1	GENERAL	630	n/a	1	-1	n/a	n/a	n/a	n/a	n/a
3585972	RECOG_TARGET	n/a	LTP275	ltpFR	2	3	0	NEST	945	1	4	0	n/a	n/a	n/a	n/a	n/a
3586733	RECOG_RESP	n/a	LTP275	ltpFR	2	3	0	NEST	945	1	n/a	0	n/a	n/a	n/a	n/a	n/a
3587628	RECOG_CONF	n/a	LTP275	ltpFR	2	3	0	NEST	945	n/a	4	0	n/a	n/a	n/a	n/a	n/a
3589390	RECOG_LURE	n/a	LTP275	ltpFR	2	3	n/a	VAGRANT	1544	0	5	n/a	n/a	n/a	n/a	n/a	n/a
3590308	RECOG_RESP	n/a	LTP275	ltpFR	2	3	n/a	VAGRANT	1544	0	n/a	n/a	n/a	n/a	n/a	n/a	n/a
3591128	RECOG_CONF	n/a	LTP275	ltpFR	2	3	n/a	VAGRANT	1544	n/a	5	n/a	n/a	n/a	n/a	n/a	n/a
3593021	RECOG_LURE	n/a	LTP275	ltpFR	2	3	n/a	NAVIGATOR	938	0	1	n/a	n/a	n/a	n/a	n/a	n/a
3593873	RECOG_RESP	n/a	LTP275	ltpFR	2	3	n/a	NAVIGATOR	938	0	n/a	n/a	n/a	n/a	n/a	n/a	n/a
3594198	RECOG_CONF	n/a	LTP275	ltpFR	2	3	n/a	NAVIGATOR	938	n/a	1	n/a	n/a	n/a	n/a	n/a	n/a
3596484	RECOG_TARGET	n/a	LTP275	ltpFR	2	3	1	ELBOW	520	1	3	0	n/a	n/a	n/a	n/a	n/a
3597333	RECOG_RESP	n/a	LTP275	ltpFR	2	3	1	ELBOW	520	1	n/a	0	n/a	n/a	n/a	n/a	n/a
3598158	RECOG_CONF	n/a	LTP275	ltpFR	2	3	1	ELBOW	520	n/a	3	0	n/a	n/a	n/a	n/a	n/a
3599874	RECOG_TARGET	n/a	LTP275	ltpFR	2	3	0	MARINE	869	1	4	1	n/a	n/a	n/a	n/a	n/a
3600548	RECOG_RESP	n/a	LTP275	ltpFR	2	3	0	MARINE	869	1	n/a	1	n/a	n/a	n/a	n/a	n/a
3601508	RECOG_CONF	n/a	LTP275	ltpFR	2	3	0	MARINE	869	n/a	4	1	n/a	n/a	n/a	n/a	n/a
3603171	RECOG_LURE	n/a	LTP275	ltpFR	2	3	n/a	BODY	145	0	1	n/a	n/a	n/a	n/a	n/a	n/a
3603983	RECOG_RESP	n/a	LTP275	ltpFR	2	3	n/a	BODY	145	0	n/a	n/a	n/a	n/a	n/a	n/a	n/a
3604318	RECOG_CONF	n/a	LTP275	ltpFR	2	3	n/a	BODY	145	n/a	1	n/a	n/a	n/a	n/a	n/a	n/a
3606572	RECOG_TARGET	n/a	LTP275	ltpFR	2	3	0	WRITER	1627	1	4	1	n/a	n/a	n/a	n/a	n/a
3607253	RECOG_RESP	n/a	LTP275	ltpFR	2	3	0	WRITER	1627	1	n/a	1	n/a	n/a	n/a	n/a	n/a
3608088	RECOG_CONF	n/a	LTP275	ltpFR	2	3	0	WRITER	1627	n/a	4	1	n/a	n/a	n/a	n/a	n/a
3615094	REC_START	n/a	LTP275	ltpFR	2	4	n/a	n/a	n/a	n/a	n/a	n/a	n/a	n/a	n/a	n/a	n/a
3615149	RECOG_LURE	n/a	LTP275	ltpFR	2	4	n/a	CHAMPION	279	0	1	n/a	n/a	n/a	n/a	n/a	n/a
3616399	RECOG_RESP	n/a	LTP275	ltpFR	2	4	n/a	CHAMPION	279	0	n/a	n/a	n/a	n/a	n/a	n/a	n/a
3617274	RECOG_CONF	n/a	LTP275	ltpFR	2	4	n/a	CHAMPION	279	n/a	1	n/a	n/a	n/a	n/a	n/a	n/a
3619030	RECOG_TARGET	n/a	LTP275	ltpFR	2	4	1	PORPOISE	1109	0	1	1	n/a	n/a	n/a	n/a	n/a
3619959	RECOG_RESP	n/a	LTP275	ltpFR	2	4	1	PORPOISE	1109	0	n/a	1	n/a	n/a	n/a	n/a	n/a
3620294	RECOG_CONF	n/a	LTP275	ltpFR	2	4	1	PORPOISE	1109	n/a	1	1	n/a	n/a	n/a	n/a	n/a
3622694	RECOG_TARGET	n/a	LTP275	ltpFR	2	4	1	CHIPMUNK	304	1	5	1	n/a	n/a	n/a	n/a	n/a
3623389	RECOG_RESP	n/a	LTP275	ltpFR	2	4	1	CHIPMUNK	304	1	n/a	1	n/a	n/a	n/a	n/a	n/a
3624294	RECOG_CONF	n/a	LTP275	ltpFR	2	4	1	CHIPMUNK	304	n/a	5	1	n/a	n/a	n/a	n/a	n/a
3625939	RECOG_TARGET	n/a	LTP275	ltpFR	2	4	0	COBRA	336	1	5	0	n/a	n/a	n/a	n/a	n/a
3626614	RECOG_RESP	n/a	LTP275	ltpFR	2	4	0	COBRA	336	1	n/a	0	n/a	n/a	n/a	n/a	n/a
3627514	RECOG_CONF	n/a	LTP275	ltpFR	2	4	0	COBRA	336	n/a	5	0	n/a	n/a	n/a	n/a	n/a
3628833	RECOG_TARGET	n/a	LTP275	ltpFR	2	4	-1	CINNAMON	310	1	5	-1	n/a	n/a	n/a	n/a	n/a
3629619	RECOG_RESP	n/a	LTP275	ltpFR	2	4	-1	CINNAMON	310	1	n/a	-1	n/a	n/a	n/a	n/a	n/a
3630544	RECOG_CONF	n/a	LTP275	ltpFR	2	4	-1	CINNAMON	310	n/a	5	-1	n/a	n/a	n/a	n/a	n/a
3631850	RECOG_TARGET	n/a	LTP275	ltpFR	2	4	1	RECIPE	1175	1	5	0	n/a	n/a	n/a	n/a	n/a
3632639	RECOG_RESP	n/a	LTP275	ltpFR	2	4	1	RECIPE	1175	1	n/a	0	n/a	n/a	n/a	n/a	n/a
3633554	RECOG_CONF	n/a	LTP275	ltpFR	2	4	1	RECIPE	1175	n/a	5	0	n/a	n/a	n/a	n/a	n/a
3634940	RECOG_LURE	n/a	LTP275	ltpFR	2	4	n/a	PATROL	1027	0	2	n/a	n/a	n/a	n/a	n/a	n/a
3635884	RECOG_RESP	n/a	LTP275	ltpFR	2	4	n/a	PATROL	1027	0	n/a	n/a	n/a	n/a	n/a	n/a	n/a
3636714	RECOG_CONF	n/a	LTP275	ltpFR	2	4	n/a	PATROL	1027	n/a	2	n/a	n/a	n/a	n/a	n/a	n/a
3638275	RECOG_LURE	n/a	LTP275	ltpFR	2	4	n/a	NIECE	952	0	1	n/a	n/a	n/a	n/a	n/a	n/a
3639179	RECOG_RESP	n/a	LTP275	ltpFR	2	4	n/a	NIECE	952	0	n/a	n/a	n/a	n/a	n/a	n/a	n/a
3639494	RECOG_CONF	n/a	LTP275	ltpFR	2	4	n/a	NIECE	952	n/a	1	n/a	n/a	n/a	n/a	n/a	n/a
3641520	RECOG_TARGET	n/a	LTP275	ltpFR	2	4	1	LADY	794	1	5	1	n/a	n/a	n/a	n/a	n/a
3642299	RECOG_RESP	n/a	LTP275	ltpFR	2	4	1	LADY	794	1	n/a	1	n/a	n/a	n/a	n/a	n/a
3643034	RECOG_CONF	n/a	LTP275	ltpFR	2	4	1	LADY	794	n/a	5	1	n/a	n/a	n/a	n/a	n/a
3644916	RECOG_LURE	n/a	LTP275	ltpFR	2	4	n/a	JURY	766	0	3	n/a	n/a	n/a	n/a	n/a	n/a
3645609	RECOG_RESP	n/a	LTP275	ltpFR	2	4	n/a	JURY	766	0	n/a	n/a	n/a	n/a	n/a	n/a	n/a
3646434	RECOG_CONF	n/a	LTP275	ltpFR	2	4	n/a	JURY	766	n/a	3	n/a	n/a	n/a	n/a	n/a	n/a
3648079	RECOG_TARGET	n/a	LTP275	ltpFR	2	4	0	MONARCH	906	0	4	1	n/a	n/a	n/a	n/a	n/a
3648909	RECOG_RESP	n/a	LTP275	ltpFR	2	4	0	MONARCH	906	0	n/a	1	n/a	n/a	n/a	n/a	n/a
3649814	RECOG_CONF	n/a	LTP275	ltpFR	2	4	0	MONARCH	906	n/a	4	1	n/a	n/a	n/a	n/a	n/a
3651474	RECOG_TARGET	n/a	LTP275	ltpFR	2	4	-1	DINNER	468	0	1	-1	n/a	n/a	n/a	n/a	n/a
3653074	RECOG_RESP	n/a	LTP275	ltpFR	2	4	-1	DINNER	468	0	n/a	-1	n/a	n/a	n/a	n/a	n/a
3653874	RECOG_CONF	n/a	LTP275	ltpFR	2	4	-1	DINNER	468	n/a	1	-1	n/a	n/a	n/a	n/a	n/a
3655757	RECOG_TARGET	n/a	LTP275	ltpFR	2	4	0	DOLPHIN	483	1	5	1	n/a	n/a	n/a	n/a	n/a
3656444	RECOG_RESP	n/a	LTP275	ltpFR	2	4	0	DOLPHIN	483	1	n/a	1	n/a	n/a	n/a	n/a	n/a
3657294	RECOG_CONF	n/a	LTP275	ltpFR	2	4	0	DOLPHIN	483	n/a	5	1	n/a	n/a	n/a	n/a	n/a
3658802	RECOG_TARGET	n/a	LTP275	ltpFR	2	4	-1	SHORTCAKE	1292	1	3	-1	n/a	n/a	n/a	n/a	n/a
3660114	RECOG_RESP	n/a	LTP275	ltpFR	2	4	-1	SHORTCAKE	1292	1	n/a	-1	n/a	n/a	n/a	n/a	n/a
3661004	RECOG_CONF	n/a	LTP275	ltpFR	2	4	-1	SHORTCAKE	1292	n/a	3	-1	n/a	n/a	n/a	n/a	n/a
3662912	RECOG_LURE	n/a	LTP275	ltpFR	2	4	n/a	FREEWAY	603	0	2	n/a	n/a	n/a	n/a	n/a	n/a
3663804	RECOG_RESP	n/a	LTP275	ltpFR	2	4	n/a	FREEWAY	603	0	n/a	n/a	n/a	n/a	n/a	n/a	n/a
3664624	RECOG_CONF	n/a	LTP275	ltpFR	2	4	n/a	FREEWAY	603	n/a	2	n/a	n/a	n/a	n/a	n/a	n/a
3666364	RECOG_TARGET	n/a	LTP275	ltpFR	2	4	-1	TOAST	1471	1	5	-1	n/a	n/a	n/a	n/a	n/a
3667109	RECOG_RESP	n/a	LTP275	ltpFR	2	4	-1	TOAST	1471	1	n/a	-1	n/a	n/a	n/a	n/a	n/a
3667924	RECOG_CONF	n/a	LTP275	ltpFR	2	4	-1	TOAST	1471	n/a	5	-1	n/a	n/a	n/a	n/a	n/a
3669537	RECOG_TARGET	n/a	LTP275	ltpFR	2	4	1	KNUCKLE	789	1	5	1	n/a	n/a	n/a	n/a	n/a
3670234	RECOG_RESP	n/a	LTP275	ltpFR	2	4	1	KNUCKLE	789	1	n/a	1	n/a	n/a	n/a	n/a	n/a
3671134	RECOG_CONF	n/a	LTP275	ltpFR	2	4	1	KNUCKLE	789	n/a	5	1	n/a	n/a	n/a	n/a	n/a
3672938	RECOG_TARGET	n/a	LTP275	ltpFR	2	4	1	BASEBALL	93	0	1	0	n/a	n/a	n/a	n/a	n/a
3674364	RECOG_RESP	n/a	LTP275	ltpFR	2	4	1	BASEBALL	93	0	n/a	0	n/a	n/a	n/a	n/a	n/a
3675374	RECOG_CONF	n/a	LTP275	ltpFR	2	4	1	BASEBALL	93	n/a	1	0	n/a	n/a	n/a	n/a	n/a
3677139	RECOG_TARGET	n/a	LTP275	ltpFR	2	4	0	WATER	1594	1	3	0	n/a	n/a	n/a	n/a	n/a
3678434	RECOG_RESP	n/a	LTP275	ltpFR	2	4	0	WATER	1594	1	n/a	0	n/a	n/a	n/a	n/a	n/a
3679234	RECOG_CONF	n/a	LTP275	ltpFR	2	4	0	WATER	1594	n/a	3	0	n/a	n/a	n/a	n/a	n/a
3681002	RECOG_TARGET	n/a	LTP275	ltpFR	2	4	0	LEOPARD	812	1	4	1	n/a	n/a	n/a	n/a	n/a
3681674	RECOG_RESP	n/a	LTP275	ltpFR	2	4	0	LEOPARD	812	1	n/a	1	n/a	n/a	n/a	n/a	n/a
3682504	RECOG_CONF	n/a	LTP275	ltpFR	2	4	0	LEOPARD	812	n/a	4	1	n/a	n/a	n/a	n/a	n/a
3688680	REC_START	n/a	LTP275	ltpFR	2	5	n/a	n/a	n/a	n/a	n/a	n/a	n/a	n/a	n/a	n/a	n/a
3688731	RECOG_TARGET	n/a	LTP275	ltpFR	2	5	1	SNACK	1331	1	5	0	n/a	n/a	n/a	n/a	n/a
3689630	RECOG_RESP	n/a	LTP275	ltpFR	2	5	1	SNACK	1331	1	n/a	0	n/a	n/a	n/a	n/a	n/a
3690560	RECOG_CONF	n/a	LTP275	ltpFR	2	5	1	SNACK	1331	n/a	5	0	n/a	n/a	n/a	n/a	n/a
3692279	RECOG_TARGET	n/a	LTP275	ltpFR	2	5	1	DESIGNER	451	1	5	1	n/a	n/a	n/a	n/a	n/a
3692905	RECOG_RESP	n/a	LTP275	ltpFR	2	5	1	DESIGNER	451	1	n/a	1	n/a	n/a	n/a	n/a	n/a
3693780	RECOG_CONF	n/a	LTP275	ltpFR	2	5	1	DESIGNER	451	n/a	5	1	n/a	n/a	n/a	n/a	n/a
3695468	RECOG_LURE	n/a	LTP275	ltpFR	2	5	n/a	PIGEON	1065	0	1	n/a	n/a	n/a	n/a	n/a	n/a
3696300	RECOG_RESP	n/a	LTP275	ltpFR	2	5	n/a	PIGEON	1065	0	n/a	n/a	n/a	n/a	n/a	n/a	n/a
3697220	RECOG_CONF	n/a	LTP275	ltpFR	2	5	n/a	PIGEON	1065	n/a	1	n/a	n/a	n/a	n/a	n/a	n/a
3698886	RECOG_LURE	n/a	LTP275	ltpFR	2	5	n/a	GUN	673	0	1	n/a	n/a	n/a	n/a	n/a	n/a
3699740	RECOG_RESP	n/a	LTP275	ltpFR	2	5	n/a	GUN	673	0	n/a	n/a	n/a	n/a	n/a	n/a	n/a
3700570	RECOG_CONF	n/a	LTP275	ltpFR	2	5	n/a	GUN	673	n/a	1	n/a	n/a	n/a	n/a	n/a	n/a
3702483	RECOG_TARGET	n/a	LTP275	ltpFR	2	5	1	VALVE	1546	1	5	1	n/a	n/a	n/a	n/a	n/a
3703275	RECOG_RESP	n/a	LTP275	ltpFR	2	5	1	VALVE	1546	1	n/a	1	n/a	n/a	n/a	n/a	n/a
3703950	RECOG_CONF	n/a	LTP275	ltpFR	2	5	1	VALVE	1546	n/a	5	1	n/a	n/a	n/a	n/a	n/a
3705829	RECOG_TARGET	n/a	LTP275	ltpFR	2	5	0	CITIZEN	312	1	4	1	n/a	n/a	n/a	n/a	n/a
3706865	RECOG_RESP	n/a	LTP275	ltpFR	2	5	0	CITIZEN	312	1	n/a	1	n/a	n/a	n/a	n/a	n/a
3707520	RECOG_CONF	n/a	LTP275	ltpFR	2	5	0	CITIZEN	312	n/a	4	1	n/a	n/a	n/a	n/a	n/a
3709543	RECOG_LURE	n/a	LTP275	ltpFR	2	5	n/a	JAM	748	0	2	n/a	n/a	n/a	n/a	n/a	n/a
3710385	RECOG_RESP	n/a	LTP275	ltpFR	2	5	n/a	JAM	748	0	n/a	n/a	n/a	n/a	n/a	n/a	n/a
3711240	RECOG_CONF	n/a	LTP275	ltpFR	2	5	n/a	JAM	748	n/a	2	n/a	n/a	n/a	n/a	n/a	n/a
3712950	RECOG_TARGET	n/a	LTP275	ltpFR	2	5	-1	SPOON	1357	0	1	-1	n/a	n/a	n/a	n/a	n/a
3714035	RECOG_RESP	n/a	LTP275	ltpFR	2	5	-1	SPOON	1357	0	n/a	-1	n/a	n/a	n/a	n/a	n/a
3714350	RECOG_CONF	n/a	LTP275	ltpFR	2	5	-1	SPOON	1357	n/a	1	-1	n/a	n/a	n/a	n/a	n/a
3716664	RECOG_TARGET	n/a	LTP275	ltpFR	2	5	-1	TRAITOR	1495	1	4	-1	n/a	n/a	n/a	n/a	n/a
3717680	RECOG_RESP	n/a	LTP275	ltpFR	2	5	-1	TRAITOR	1495	1	n/a	-1	n/a	n/a	n/a	n/a	n/a
3718430	RECOG_CONF	n/a	LTP275	ltpFR	2	5	-1	TRAITOR	1495	n/a	4	-1	n/a	n/a	n/a	n/a	n/a
3720151	RECOG_TARGET	n/a	LTP275	ltpFR	2	5	-1	TUBA	1515	1	5	-1	n/a	n/a	n/a	n/a	n/a
3720875	RECOG_RESP	n/a	LTP275	ltpFR	2	5	-1	TUBA	1515	1	n/a	-1	n/a	n/a	n/a	n/a	n/a
3721680	RECOG_CONF	n/a	LTP275	ltpFR	2	5	-1	TUBA	1515	n/a	5	-1	n/a	n/a	n/a	n/a	n/a
3723329	RECOG_TARGET	n/a	LTP275	ltpFR	2	5	0	BOSS	152	0	1	1	n/a	n/a	n/a	n/a	n/a
3724295	RECOG_RESP	n/a	LTP275	ltpFR	2	5	0	BOSS	152	0	n/a	1	n/a	n/a	n/a	n/a	n/a
3724630	RECOG_CONF	n/a	LTP275	ltpFR	2	5	0	BOSS	152	n/a	1	1	n/a	n/a	n/a	n/a	n/a
3726858	RECOG_TARGET	n/a	LTP275	ltpFR	2	5	1	BANNER	85	1	5	0	n/a	n/a	n/a	n/a	n/a
3727640	RECOG_RESP	n/a	LTP275	ltpFR	2	5	1	BANNER	85	1	n/a	0	n/a	n/a	n/a	n/a	n/a
3728350	RECOG_CONF	n/a	LTP275	ltpFR	2	5	1	BANNER	85	n/a	5	0	n/a	n/a	n/a	n/a	n/a
3730065	RECOG_TARGET	n/a	LTP275	ltpFR	2	5	1	COMB	351	1	1	0	n/a	n/a	n/a	n/a	n/a
3731045	RECOG_RESP	n/a	LTP275	ltpFR	2	5	1	COMB	351	1	n/a	0	n/a	n/a	n/a	n/a	n/a
3731400	RECOG_CONF	n/a	LTP275	ltpFR	2	5	1	COMB	351	n/a	1	0	n/a	n/a	n/a	n/a	n/a
3733634	RECOG_LURE	n/a	LTP275	ltpFR	2	5	n/a	SOAP	1337	1	1	n/a	n/a	n/a	n/a	n/a	n/a
3734580	RECOG_RESP	n/a	LTP275	ltpFR	2	5	n/a	SOAP	1337	1	n/a	n/a	n/a	n/a	n/a	n/a	n/a
3735390	RECOG_CONF	n/a	LTP275	ltpFR	2	5	n/a	SOAP	1337	n/a	1	n/a	n/a	n/a	n/a	n/a	n/a
3737063	RECOG_TARGET	n/a	LTP275	ltpFR	2	5	0	GLOVE	642	1	2	0	n/a	n/a	n/a	n/a	n/a
3737880	RECOG_RESP	n/a	LTP275	ltpFR	2	5	0	GLOVE	642	1	n/a	0	n/a	n/a	n/a	n/a	n/a
3738690	RECOG_CONF	n/a	LTP275	ltpFR	2	5	0	GLOVE	642	n/a	2	0	n/a	n/a	n/a	n/a	n/a
3740560	RECOG_LURE	n/a	LTP275	ltpFR	2	5	n/a	CEREAL	272	0	1	n/a	n/a	n/a	n/a	n/a	n/a
3741395	RECOG_RESP	n/a	LTP275	ltpFR	2	5	n/a	CEREAL	272	0	n/a	n/a	n/a	n/a	n/a	n/a	n/a
