mstime	trial_type	stim_file	subject	experiment	session	trial	item_name	item_num	list	answer	test_x	test_y	test_z
0	SESS_START	n/a	LTP336	ltpFR2	6	n/a	n/a	n/a	n/a	n/a	0	0	0
15662	START	n/a	LTP336	ltpFR2	6	n/a	n/a	n/a	-1	n/a	n/a	n/a	n/a
15692	PROB	n/a	LTP336	ltpFR2	6	n/a	n/a	n/a	-1	19	6	8	5
18340	PROB	n/a	LTP336	ltpFR2	6	n/a	n/a	n/a	-1	14	6	1	7
20273	PROB	n/a	LTP336	ltpFR2	6	n/a	n/a	n/a	-1	16	7	6	3
22056	PROB	n/a	LTP336	ltpFR2	6	n/a	n/a	n/a	-1	22	6	9	7
24039	PROB	n/a	LTP336	ltpFR2	6	n/a	n/a	n/a	-1	15	1	8	6
25838	PROB	n/a	LTP336	ltpFR2	6	n/a	n/a	n/a	-1	16	6	2	8
27623	STOP	n/a	LTP336	ltpFR2	6	n/a	n/a	n/a	-1	n/a	n/a	n/a	n/a
59073	DISTRACTOR	n/a	LTP336	ltpFR2	6	1	n/a	n/a	n/a	n/a	0	0	0
59073	START	n/a	LTP336	ltpFR2	6	n/a	n/a	n/a	1	n/a	n/a	n/a	n/a
59088	PROB	n/a	LTP336	ltpFR2	6	n/a	n/a	n/a	1	8	4	3	1
61005	PROB	n/a	LTP336	ltpFR2	6	n/a	n/a	n/a	1	20	9	5	6
63403	PROB	n/a	LTP336	ltpFR2	6	n/a	n/a	n/a	1	14	7	1	6
64970	PROB	n/a	LTP336	ltpFR2	6	n/a	n/a	n/a	1	15	5	4	6
67135	PROB	n/a	LTP336	ltpFR2	6	n/a	n/a	n/a	1	14	7	5	2
68818	PROB	n/a	LTP336	ltpFR2	6	n/a	n/a	n/a	1	12	9	2	1
70250	PROB	n/a	LTP336	ltpFR2	6	n/a	n/a	n/a	1	17	3	6	8
72667	PROB	n/a	LTP336	ltpFR2	6	n/a	n/a	n/a	1	16	1	9	6
74066	PROB	n/a	LTP336	ltpFR2	6	n/a	n/a	n/a	1	18	4	7	7
75548	PROB	n/a	LTP336	ltpFR2	6	n/a	n/a	n/a	1	14	5	3	6
77114	PROB	n/a	LTP336	ltpFR2	6	n/a	n/a	n/a	1	14	7	4	3
78864	PROB	n/a	LTP336	ltpFR2	6	n/a	n/a	n/a	1	12	5	1	6
80279	PROB	n/a	LTP336	ltpFR2	6	n/a	n/a	n/a	1	18	8	6	4
82240	STOP	n/a	LTP336	ltpFR2	6	n/a	n/a	n/a	1	n/a	n/a	n/a	n/a
84110	WORD	wordpools/wasnorm_wordpool_576.txt	LTP336	ltpFR2	6	1	SUBWAY	1400	n/a	n/a	0	0	0
86760	WORD	wordpools/wasnorm_wordpool_576.txt	LTP336	ltpFR2	6	1	PIGEON	1065	n/a	n/a	0	0	0
89458	WORD	wordpools/wasnorm_wordpool_576.txt	LTP336	ltpFR2	6	1	PISTOL	1075	n/a	n/a	0	0	0
92090	WORD	wordpools/wasnorm_wordpool_576.txt	LTP336	ltpFR2	6	1	STAPLE	1371	n/a	n/a	0	0	0
94790	WORD	wordpools/wasnorm_wordpool_576.txt	LTP336	ltpFR2	6	1	TWEEZERS	1526	n/a	n/a	0	0	0
97554	WORD	wordpools/wasnorm_wordpool_576.txt	LTP336	ltpFR2	6	1	FLEET	578	n/a	n/a	0	0	0
100136	WORD	wordpools/wasnorm_wordpool_576.txt	LTP336	ltpFR2	6	1	LUMBER	848	n/a	n/a	0	0	0
102636	WORD	wordpools/wasnorm_wordpool_576.txt	LTP336	ltpFR2	6	1	JUNGLE	764	n/a	n/a	0	0	0
105451	WORD	wordpools/wasnorm_wordpool_576.txt	LTP336	ltpFR2	6	1	COUNTRY	388	n/a	n/a	0	0	0
107901	WORD	wordpools/wasnorm_wordpool_576.txt	LTP336	ltpFR2	6	1	PIMPLE	1071	n/a	n/a	0	0	0
110382	WORD	wordpools/wasnorm_wordpool_576.txt	LTP336	ltpFR2	6	1	BASEMENT	94	n/a	n/a	0	0	0
113065	WORD	wordpools/wasnorm_wordpool_576.txt	LTP336	ltpFR2	6	1	KIDNEY	776	n/a	n/a	0	0	0
115563	WORD	wordpools/wasnorm_wordpool_576.txt	LTP336	ltpFR2	6	1	BOUQUET	157	n/a	n/a	0	0	0
118245	WORD	wordpools/wasnorm_wordpool_576.txt	LTP336	ltpFR2	6	1	SPARROW	1347	n/a	n/a	0	0	0
120845	WORD	wordpools/wasnorm_wordpool_576.txt	LTP336	ltpFR2	6	1	LOVER	846	n/a	n/a	0	0	0
123559	WORD	wordpools/wasnorm_wordpool_576.txt	LTP336	ltpFR2	6	1	WHISTLE	1606	n/a	n/a	0	0	0
126108	WORD	wordpools/wasnorm_wordpool_576.txt	LTP336	ltpFR2	6	1	ZEBRA	1635	n/a	n/a	0	0	0
128875	WORD	wordpools/wasnorm_wordpool_576.txt	LTP336	ltpFR2	6	1	STUDENT	1395	n/a	n/a	0	0	0
131389	WORD	wordpools/wasnorm_wordpool_576.txt	LTP336	ltpFR2	6	1	PUPIL	1143	n/a	n/a	0	0	0
134088	WORD	wordpools/wasnorm_wordpool_576.txt	LTP336	ltpFR2	6	1	VIRUS	1572	n/a	n/a	0	0	0
136621	WORD	wordpools/wasnorm_wordpool_576.txt	LTP336	ltpFR2	6	1	SMOG	1330	n/a	n/a	0	0	0
139070	WORD	wordpools/wasnorm_wordpool_576.txt	LTP336	ltpFR2	6	1	EUROPE	541	n/a	n/a	0	0	0
141819	WORD	wordpools/wasnorm_wordpool_576.txt	LTP336	ltpFR2	6	1	JELLO	754	n/a	n/a	0	0	0
144533	WORD	wordpools/wasnorm_wordpool_576.txt	LTP336	ltpFR2	6	1	COCOON	339	n/a	n/a	0	0	0
146149	START	n/a	LTP336	ltpFR2	6	n/a	n/a	n/a	2	n/a	n/a	n/a	n/a
147149	DISTRACTOR	n/a	LTP336	ltpFR2	6	1	n/a	n/a	n/a	n/a	0	0	0
147165	PROB	n/a	LTP336	ltpFR2	6	n/a	n/a	n/a	2	21	6	6	9
152113	PROB	n/a	LTP336	ltpFR2	6	n/a	n/a	n/a	2	13	2	9	2
154212	PROB	n/a	LTP336	ltpFR2	6	n/a	n/a	n/a	2	12	2	7	3
155596	PROB	n/a	LTP336	ltpFR2	6	n/a	n/a	n/a	2	17	4	5	8
157477	PROB	n/a	LTP336	ltpFR2	6	n/a	n/a	n/a	2	17	3	8	6
159727	PROB	n/a	LTP336	ltpFR2	6	n/a	n/a	n/a	2	14	7	3	4
161109	PROB	n/a	LTP336	ltpFR2	6	n/a	n/a	n/a	2	12	1	9	2
162508	PROB	n/a	LTP336	ltpFR2	6	n/a	n/a	n/a	2	12	1	9	2
165008	PROB	n/a	LTP336	ltpFR2	6	n/a	n/a	n/a	2	19	9	5	5
166573	PROB	n/a	LTP336	ltpFR2	6	n/a	n/a	n/a	2	22	7	8	7
168700	STOP	n/a	LTP336	ltpFR2	6	n/a	n/a	n/a	2	n/a	n/a	n/a	n/a
171922	REC_START	n/a	LTP336	ltpFR2	6	1	n/a	n/a	n/a	n/a	0	0	0
172661	REC_WORD	wordpools/wasnorm_wordpool_576.txt	LTP336	ltpFR2	6	1	LOVER	846	n/a	n/a	0	0	0
173676	REC_WORD	wordpools/wasnorm_wordpool_576.txt	LTP336	ltpFR2	6	1	BOUQUET	157	n/a	n/a	0	0	0
175255	REC_WORD	wordpools/wasnorm_wordpool_576.txt	LTP336	ltpFR2	6	1	PIMPLE	1071	n/a	n/a	0	0	0
177042	REC_WORD	wordpools/wasnorm_wordpool_576.txt	LTP336	ltpFR2	6	1	PIGEON	1065	n/a	n/a	0	0	0
178658	REC_WORD	wordpools/wasnorm_wordpool_576.txt	LTP336	ltpFR2	6	1	STAPLE	1371	n/a	n/a	0	0	0
180730	REC_WORD	wordpools/wasnorm_wordpool_576.txt	LTP336	ltpFR2	6	1	KIDNEY	776	n/a	n/a	0	0	0
182894	REC_WORD	wordpools/wasnorm_wordpool_576.txt	LTP336	ltpFR2	6	1	TWEEZERS	1526	n/a	n/a	0	0	0
185025	REC_WORD	wordpools/wasnorm_wordpool_576.txt	LTP336	ltpFR2	6	1	SUBWAY	1400	n/a	n/a	0	0	0
186842	REC_WORD	wordpools/wasnorm_wordpool_576.txt	LTP336	ltpFR2	6	1	SMOG	1330	n/a	n/a	0	0	0
193177	REC_WORD	wordpools/wasnorm_wordpool_576.txt	LTP336	ltpFR2	6	1	COUNTRY	388	n/a	n/a	0	0	0
195159	REC_WORD	wordpools/wasnorm_wordpool_576.txt	LTP336	ltpFR2	6	1	STUDENT	1395	n/a	n/a	0	0	0
196845	REC_WORD	wordpools/wasnorm_wordpool_576.txt	LTP336	ltpFR2	6	1	EUROPE	541	n/a	n/a	0	0	0
200241	REC_WORD	wordpools/wasnorm_wordpool_576.txt	LTP336	ltpFR2	6	1	BOUQUET	157	n/a	n/a	0	0	0
219676	REC_WORD_VV	wordpools/wasnorm_wordpool_576.txt	LTP336	ltpFR2	6	1	<>	-1	n/a	n/a	0	0	0
262363	DISTRACTOR	n/a	LTP336	ltpFR2	6	2	n/a	n/a	n/a	n/a	0	0	0
262363	START	n/a	LTP336	ltpFR2	6	n/a	n/a	n/a	3	n/a	n/a	n/a	n/a
262380	PROB	n/a	LTP336	ltpFR2	6	n/a	n/a	n/a	3	15	8	6	1
267577	PROB	n/a	LTP336	ltpFR2	6	n/a	n/a	n/a	3	12	1	5	6
268978	PROB	n/a	LTP336	ltpFR2	6	n/a	n/a	n/a	3	19	8	4	7
270694	PROB	n/a	LTP336	ltpFR2	6	n/a	n/a	n/a	3	9	1	6	2
272259	PROB	n/a	LTP336	ltpFR2	6	n/a	n/a	n/a	3	14	5	1	8
273909	PROB	n/a	LTP336	ltpFR2	6	n/a	n/a	n/a	3	20	2	9	9
275608	PROB	n/a	LTP336	ltpFR2	6	n/a	n/a	n/a	3	21	4	9	8
279489	PROB	n/a	LTP336	ltpFR2	6	n/a	n/a	n/a	3	13	7	4	2
282022	PROB	n/a	LTP336	ltpFR2	6	n/a	n/a	n/a	3	17	8	1	8
283738	PROB	n/a	LTP336	ltpFR2	6	n/a	n/a	n/a	3	20	8	9	3
286151	STOP	n/a	LTP336	ltpFR2	6	n/a	n/a	n/a	3	n/a	n/a	n/a	n/a
287502	WORD	wordpools/wasnorm_wordpool_576.txt	LTP336	ltpFR2	6	2	UMPIRE	1535	n/a	n/a	0	0	0
289985	WORD	wordpools/wasnorm_wordpool_576.txt	LTP336	ltpFR2	6	2	FLASK	576	n/a	n/a	0	0	0
292717	WORD	wordpools/wasnorm_wordpool_576.txt	LTP336	ltpFR2	6	2	PAIL	1002	n/a	n/a	0	0	0
295232	WORD	wordpools/wasnorm_wordpool_576.txt	LTP336	ltpFR2	6	2	PLUTO	1092	n/a	n/a	0	0	0
297781	WORD	wordpools/wasnorm_wordpool_576.txt	LTP336	ltpFR2	6	2	CLOUD	328	n/a	n/a	0	0	0
300496	WORD	wordpools/wasnorm_wordpool_576.txt	LTP336	ltpFR2	6	2	PICTURE	1061	n/a	n/a	0	0	0
303228	WORD	wordpools/wasnorm_wordpool_576.txt	LTP336	ltpFR2	6	2	MAPLE	866	n/a	n/a	0	0	0
306011	WORD	wordpools/wasnorm_wordpool_576.txt	LTP336	ltpFR2	6	2	TWIG	1527	n/a	n/a	0	0	0
308743	WORD	wordpools/wasnorm_wordpool_576.txt	LTP336	ltpFR2	6	2	EMPIRE	530	n/a	n/a	0	0	0
311524	WORD	wordpools/wasnorm_wordpool_576.txt	LTP336	ltpFR2	6	2	TOURIST	1488	n/a	n/a	0	0	0
314206	WORD	wordpools/wasnorm_wordpool_576.txt	LTP336	ltpFR2	6	2	WOMAN	1620	n/a	n/a	0	0	0
316890	WORD	wordpools/wasnorm_wordpool_576.txt	LTP336	ltpFR2	6	2	KETCHUP	771	n/a	n/a	0	0	0
319371	WORD	wordpools/wasnorm_wordpool_576.txt	LTP336	ltpFR2	6	2	RECEIPT	1173	n/a	n/a	0	0	0
322037	WORD	wordpools/wasnorm_wordpool_576.txt	LTP336	ltpFR2	6	2	SPACE	1345	n/a	n/a	0	0	0
324502	WORD	wordpools/wasnorm_wordpool_576.txt	LTP336	ltpFR2	6	2	ACTRESS	6	n/a	n/a	0	0	0
327167	WORD	wordpools/wasnorm_wordpool_576.txt	LTP336	ltpFR2	6	2	BRANCH	168	n/a	n/a	0	0	0
329600	WORD	wordpools/wasnorm_wordpool_576.txt	LTP336	ltpFR2	6	2	TRANSPLANT	1496	n/a	n/a	0	0	0
332082	WORD	wordpools/wasnorm_wordpool_576.txt	LTP336	ltpFR2	6	2	LUGGAGE	847	n/a	n/a	0	0	0
334564	WORD	wordpools/wasnorm_wordpool_576.txt	LTP336	ltpFR2	6	2	SALT	1229	n/a	n/a	0	0	0
337379	WORD	wordpools/wasnorm_wordpool_576.txt	LTP336	ltpFR2	6	2	WIDOW	1608	n/a	n/a	0	0	0
339846	WORD	wordpools/wasnorm_wordpool_576.txt	LTP336	ltpFR2	6	2	FOOTBALL	591	n/a	n/a	0	0	0
342611	WORD	wordpools/wasnorm_wordpool_576.txt	LTP336	ltpFR2	6	2	SKETCH	1315	n/a	n/a	0	0	0
345409	WORD	wordpools/wasnorm_wordpool_576.txt	LTP336	ltpFR2	6	2	VELVET	1555	n/a	n/a	0	0	0
347859	WORD	wordpools/wasnorm_wordpool_576.txt	LTP336	ltpFR2	6	2	SILK	1307	n/a	n/a	0	0	0
349474	START	n/a	LTP336	ltpFR2	6	n/a	n/a	n/a	4	n/a	n/a	n/a	n/a
350286	DISTRACTOR	n/a	LTP336	ltpFR2	6	2	n/a	n/a	n/a	n/a	0	0	0
350290	PROB	n/a	LTP336	ltpFR2	6	n/a	n/a	n/a	4	24	7	9	8
355072	PROB	n/a	LTP336	ltpFR2	6	n/a	n/a	n/a	4	19	9	8	2
357520	PROB	n/a	LTP336	ltpFR2	6	n/a	n/a	n/a	4	10	5	4	1
359219	PROB	n/a	LTP336	ltpFR2	6	n/a	n/a	n/a	4	10	1	2	7
360603	PROB	n/a	LTP336	ltpFR2	6	n/a	n/a	n/a	4	10	4	1	5
362036	PROB	n/a	LTP336	ltpFR2	6	n/a	n/a	n/a	4	12	9	2	1
363818	PROB	n/a	LTP336	ltpFR2	6	n/a	n/a	n/a	4	13	7	5	1
365834	PROB	n/a	LTP336	ltpFR2	6	n/a	n/a	n/a	4	18	8	3	7
367582	PROB	n/a	LTP336	ltpFR2	6	n/a	n/a	n/a	4	19	6	4	9
369315	PROB	n/a	LTP336	ltpFR2	6	n/a	n/a	n/a	4	11	6	4	1
370865	PROB	n/a	LTP336	ltpFR2	6	n/a	n/a	n/a	4	17	6	7	4
372890	STOP	n/a	LTP336	ltpFR2	6	n/a	n/a	n/a	4	n/a	n/a	n/a	n/a
375296	REC_START	n/a	LTP336	ltpFR2	6	2	n/a	n/a	n/a	n/a	0	0	0
376540	REC_WORD	wordpools/wasnorm_wordpool_576.txt	LTP336	ltpFR2	6	2	VELVET	1555	n/a	n/a	0	0	0
377787	REC_WORD	wordpools/wasnorm_wordpool_576.txt	LTP336	ltpFR2	6	2	SILK	1307	n/a	n/a	0	0	0
379396	REC_WORD	wordpools/wasnorm_wordpool_576.txt	LTP336	ltpFR2	6	2	TOURIST	1488	n/a	n/a	0	0	0
380890	REC_WORD	wordpools/wasnorm_wordpool_576.txt	LTP336	ltpFR2	6	2	TWIG	1527	n/a	n/a	0	0	0
382529	REC_WORD	wordpools/wasnorm_wordpool_576.txt	LTP336	ltpFR2	6	2	EMPIRE	530	n/a	n/a	0	0	0
384477	REC_WORD	wordpools/wasnorm_wordpool_576.txt	LTP336	ltpFR2	6	2	UMPIRE	1535	n/a	n/a	0	0	0
386345	REC_WORD	wordpools/wasnorm_wordpool_576.txt	LTP336	ltpFR2	6	2	RECEIPT	1173	n/a	n/a	0	0	0
387962	REC_WORD	wordpools/wasnorm_wordpool_576.txt	LTP336	ltpFR2	6	2	KETCHUP	771	n/a	n/a	0	0	0
389636	REC_WORD	wordpools/wasnorm_wordpool_576.txt	LTP336	ltpFR2	6	2	TRANSPLANT	1496	n/a	n/a	0	0	0
391596	REC_WORD	wordpools/wasnorm_wordpool_576.txt	LTP336	ltpFR2	6	2	PLUTO	1092	n/a	n/a	0	0	0
426692	REC_WORD_VV	wordpools/wasnorm_wordpool_576.txt	LTP336	ltpFR2	6	2	<>	-1	n/a	n/a	0	0	0
465722	DISTRACTOR	n/a	LTP336	ltpFR2	6	3	n/a	n/a	n/a	n/a	0	0	0
465722	START	n/a	LTP336	ltpFR2	6	n/a	n/a	n/a	5	n/a	n/a	n/a	n/a
465739	PROB	n/a	LTP336	ltpFR2	6	n/a	n/a	n/a	5	18	5	8	5
470369	PROB	n/a	LTP336	ltpFR2	6	n/a	n/a	n/a	5	23	6	8	9
472468	PROB	n/a	LTP336	ltpFR2	6	n/a	n/a	n/a	5	11	4	1	6
473885	PROB	n/a	LTP336	ltpFR2	6	n/a	n/a	n/a	5	15	4	5	6
476350	PROB	n/a	LTP336	ltpFR2	6	n/a	n/a	n/a	5	14	7	3	4
477900	PROB	n/a	LTP336	ltpFR2	6	n/a	n/a	n/a	5	17	6	8	3
479982	PROB	n/a	LTP336	ltpFR2	6	n/a	n/a	n/a	5	16	9	2	5
482247	PROB	n/a	LTP336	ltpFR2	6	n/a	n/a	n/a	5	15	6	5	4
484947	PROB	n/a	LTP336	ltpFR2	6	n/a	n/a	n/a	5	18	8	5	5
486462	PROB	n/a	LTP336	ltpFR2	6	n/a	n/a	n/a	5	20	8	5	7
488622	STOP	n/a	LTP336	ltpFR2	6	n/a	n/a	n/a	5	n/a	n/a	n/a	n/a
490611	WORD	wordpools/wasnorm_wordpool_576.txt	LTP336	ltpFR2	6	3	CRIB	407	n/a	n/a	0	0	0
493125	WORD	wordpools/wasnorm_wordpool_576.txt	LTP336	ltpFR2	6	3	CARRIAGE	248	n/a	n/a	0	0	0
495625	WORD	wordpools/wasnorm_wordpool_576.txt	LTP336	ltpFR2	6	3	SPOON	1357	n/a	n/a	0	0	0
498074	WORD	wordpools/wasnorm_wordpool_576.txt	LTP336	ltpFR2	6	3	CHURCH	307	n/a	n/a	0	0	0
500673	WORD	wordpools/wasnorm_wordpool_576.txt	LTP336	ltpFR2	6	3	BABY	64	n/a	n/a	0	0	0
503338	WORD	wordpools/wasnorm_wordpool_576.txt	LTP336	ltpFR2	6	3	APRON	35	n/a	n/a	0	0	0
505787	WORD	wordpools/wasnorm_wordpool_576.txt	LTP336	ltpFR2	6	3	PENGUIN	1044	n/a	n/a	0	0	0
508302	WORD	wordpools/wasnorm_wordpool_576.txt	LTP336	ltpFR2	6	3	QUARTER	1148	n/a	n/a	0	0	0
510768	WORD	wordpools/wasnorm_wordpool_576.txt	LTP336	ltpFR2	6	3	GUARD	667	n/a	n/a	0	0	0
513316	WORD	wordpools/wasnorm_wordpool_576.txt	LTP336	ltpFR2	6	3	RECORD	1176	n/a	n/a	0	0	0
515966	WORD	wordpools/wasnorm_wordpool_576.txt	LTP336	ltpFR2	6	3	COUNTY	389	n/a	n/a	0	0	0
518765	WORD	wordpools/wasnorm_wordpool_576.txt	LTP336	ltpFR2	6	3	PROTON	1132	n/a	n/a	0	0	0
521579	WORD	wordpools/wasnorm_wordpool_576.txt	LTP336	ltpFR2	6	3	BANJO	82	n/a	n/a	0	0	0
524029	WORD	wordpools/wasnorm_wordpool_576.txt	LTP336	ltpFR2	6	3	SIBLING	1301	n/a	n/a	0	0	0
526510	WORD	wordpools/wasnorm_wordpool_576.txt	LTP336	ltpFR2	6	3	APPLE	33	n/a	n/a	0	0	0
529010	WORD	wordpools/wasnorm_wordpool_576.txt	LTP336	ltpFR2	6	3	FRUIT	610	n/a	n/a	0	0	0
531558	WORD	wordpools/wasnorm_wordpool_576.txt	LTP336	ltpFR2	6	3	GUITAR	670	n/a	n/a	0	0	0
534058	WORD	wordpools/wasnorm_wordpool_576.txt	LTP336	ltpFR2	6	3	FRIEND	606	n/a	n/a	0	0	0
536623	WORD	wordpools/wasnorm_wordpool_576.txt	LTP336	ltpFR2	6	3	TABLET	1427	n/a	n/a	0	0	0
539271	WORD	wordpools/wasnorm_wordpool_576.txt	LTP336	ltpFR2	6	3	BINDER	127	n/a	n/a	0	0	0
541838	WORD	wordpools/wasnorm_wordpool_576.txt	LTP336	ltpFR2	6	3	PATROL	1027	n/a	n/a	0	0	0
544402	WORD	wordpools/wasnorm_wordpool_576.txt	LTP336	ltpFR2	6	3	FOREST	593	n/a	n/a	0	0	0
547118	WORD	wordpools/wasnorm_wordpool_576.txt	LTP336	ltpFR2	6	3	PADDLE	1000	n/a	n/a	0	0	0
549718	WORD	wordpools/wasnorm_wordpool_576.txt	LTP336	ltpFR2	6	3	QUAIL	1147	n/a	n/a	0	0	0
551333	START	n/a	LTP336	ltpFR2	6	n/a	n/a	n/a	6	n/a	n/a	n/a	n/a
552514	DISTRACTOR	n/a	LTP336	ltpFR2	6	3	n/a	n/a	n/a	n/a	0	0	0
552532	PROB	n/a	LTP336	ltpFR2	6	n/a	n/a	n/a	6	11	2	3	6
554815	PROB	n/a	LTP336	ltpFR2	6	n/a	n/a	n/a	6	22	4	9	9
556714	PROB	n/a	LTP336	ltpFR2	6	n/a	n/a	n/a	6	16	6	3	7
558463	PROB	n/a	LTP336	ltpFR2	6	n/a	n/a	n/a	6	12	2	5	5
559930	PROB	n/a	LTP336	ltpFR2	6	n/a	n/a	n/a	6	15	8	1	6
561561	PROB	n/a	LTP336	ltpFR2	6	n/a	n/a	n/a	6	22	6	9	7
564911	PROB	n/a	LTP336	ltpFR2	6	n/a	n/a	n/a	6	17	9	6	2
567993	PROB	n/a	LTP336	ltpFR2	6	n/a	n/a	n/a	6	23	9	5	9
569675	PROB	n/a	LTP336	ltpFR2	6	n/a	n/a	n/a	6	11	7	1	3
570958	PROB	n/a	LTP336	ltpFR2	6	n/a	n/a	n/a	6	16	4	6	6
575333	STOP	n/a	LTP336	ltpFR2	6	n/a	n/a	n/a	6	n/a	n/a	n/a	n/a
577188	REC_START	n/a	LTP336	ltpFR2	6	3	n/a	n/a	n/a	n/a	0	0	0
578072	REC_WORD	wordpools/wasnorm_wordpool_576.txt	LTP336	ltpFR2	6	3	FOREST	593	n/a	n/a	0	0	0
579592	REC_WORD	wordpools/wasnorm_wordpool_576.txt	LTP336	ltpFR2	6	3	PADDLE	1000	n/a	n/a	0	0	0
581225	REC_WORD	wordpools/wasnorm_wordpool_576.txt	LTP336	ltpFR2	6	3	QUAIL	1147	n/a	n/a	0	0	0
584337	REC_WORD	wordpools/wasnorm_wordpool_576.txt	LTP336	ltpFR2	6	3	PAIL	1002	n/a	n/a	0	0	0
586522	REC_WORD	wordpools/wasnorm_wordpool_576.txt	LTP336	ltpFR2	6	3	CRIB	407	n/a	n/a	0	0	0
590752	REC_WORD	wordpools/wasnorm_wordpool_576.txt	LTP336	ltpFR2	6	3	BABY	64	n/a	n/a	0	0	0
594956	REC_WORD	wordpools/wasnorm_wordpool_576.txt	LTP336	ltpFR2	6	3	APRON	35	n/a	n/a	0	0	0
667647	WORD	wordpools/wasnorm_wordpool_576.txt	LTP336	ltpFR2	6	4	DRAWING	494	n/a	n/a	0	0	0
670445	WORD	wordpools/wasnorm_wordpool_576.txt	LTP336	ltpFR2	6	4	FRAME	600	n/a	n/a	0	0	0
673211	WORD	wordpools/wasnorm_wordpool_576.txt	LTP336	ltpFR2	6	4	TRENCH	1503	n/a	n/a	0	0	0
675827	WORD	wordpools/wasnorm_wordpool_576.txt	LTP336	ltpFR2	6	4	OX	994	n/a	n/a	0	0	0
678358	WORD	wordpools/wasnorm_wordpool_576.txt	LTP336	ltpFR2	6	4	BISON	131	n/a	n/a	0	0	0
680808	WORD	wordpools/wasnorm_wordpool_576.txt	LTP336	ltpFR2	6	4	GRAPE	654	n/a	n/a	0	0	0
683356	WORD	wordpools/wasnorm_wordpool_576.txt	LTP336	ltpFR2	6	4	PANTHER	1009	n/a	n/a	0	0	0
685872	WORD	wordpools/wasnorm_wordpool_576.txt	LTP336	ltpFR2	6	4	GROUND	666	n/a	n/a	0	0	0
688320	WORD	wordpools/wasnorm_wordpool_576.txt	LTP336	ltpFR2	6	4	SUNSET	1408	n/a	n/a	0	0	0
691119	WORD	wordpools/wasnorm_wordpool_576.txt	LTP336	ltpFR2	6	4	TURTLE	1522	n/a	n/a	0	0	0
693869	WORD	wordpools/wasnorm_wordpool_576.txt	LTP336	ltpFR2	6	4	FOREHEAD	592	n/a	n/a	0	0	0
696350	WORD	wordpools/wasnorm_wordpool_576.txt	LTP336	ltpFR2	6	4	PUPPY	1144	n/a	n/a	0	0	0
699099	WORD	wordpools/wasnorm_wordpool_576.txt	LTP336	ltpFR2	6	4	SISTER	1312	n/a	n/a	0	0	0
701599	WORD	wordpools/wasnorm_wordpool_576.txt	LTP336	ltpFR2	6	4	TAXI	1438	n/a	n/a	0	0	0
704397	WORD	wordpools/wasnorm_wordpool_576.txt	LTP336	ltpFR2	6	4	SHOVEL	1295	n/a	n/a	0	0	0
706863	WORD	wordpools/wasnorm_wordpool_576.txt	LTP336	ltpFR2	6	4	TOASTER	1472	n/a	n/a	0	0	0
709461	WORD	wordpools/wasnorm_wordpool_576.txt	LTP336	ltpFR2	6	4	COD	340	n/a	n/a	0	0	0
711977	WORD	wordpools/wasnorm_wordpool_576.txt	LTP336	ltpFR2	6	4	COUCH	386	n/a	n/a	0	0	0
714643	WORD	wordpools/wasnorm_wordpool_576.txt	LTP336	ltpFR2	6	4	PISTON	1076	n/a	n/a	0	0	0
717291	WORD	wordpools/wasnorm_wordpool_576.txt	LTP336	ltpFR2	6	4	LAVA	804	n/a	n/a	0	0	0
719757	WORD	wordpools/wasnorm_wordpool_576.txt	LTP336	ltpFR2	6	4	TRIBE	1505	n/a	n/a	0	0	0
722455	WORD	wordpools/wasnorm_wordpool_576.txt	LTP336	ltpFR2	6	4	COFFEE	341	n/a	n/a	0	0	0
725021	WORD	wordpools/wasnorm_wordpool_576.txt	LTP336	ltpFR2	6	4	HUMAN	726	n/a	n/a	0	0	0
727787	WORD	wordpools/wasnorm_wordpool_576.txt	LTP336	ltpFR2	6	4	SEAL	1262	n/a	n/a	0	0	0
729402	START	n/a	LTP336	ltpFR2	6	n/a	n/a	n/a	7	n/a	n/a	n/a	n/a
730206	DISTRACTOR	n/a	LTP336	ltpFR2	6	4	n/a	n/a	n/a	n/a	0	0	0
730218	PROB	n/a	LTP336	ltpFR2	6	n/a	n/a	n/a	7	15	8	4	3
732467	PROB	n/a	LTP336	ltpFR2	6	n/a	n/a	n/a	7	15	6	8	1
734200	PROB	n/a	LTP336	ltpFR2	6	n/a	n/a	n/a	7	10	2	1	7
735482	PROB	n/a	LTP336	ltpFR2	6	n/a	n/a	n/a	7	20	9	8	3
738982	PROB	n/a	LTP336	ltpFR2	6	n/a	n/a	n/a	7	11	5	4	2
740364	PROB	n/a	LTP336	ltpFR2	6	n/a	n/a	n/a	7	10	2	7	1
742647	PROB	n/a	LTP336	ltpFR2	6	n/a	n/a	n/a	7	25	7	9	9
744512	PROB	n/a	LTP336	ltpFR2	6	n/a	n/a	n/a	7	14	4	1	9
746244	PROB	n/a	LTP336	ltpFR2	6	n/a	n/a	n/a	7	15	3	9	3
748861	PROB	n/a	LTP336	ltpFR2	6	n/a	n/a	n/a	7	14	8	4	2
750476	PROB	n/a	LTP336	ltpFR2	6	n/a	n/a	n/a	7	10	1	4	5
751826	PROB	n/a	LTP336	ltpFR2	6	n/a	n/a	n/a	7	21	3	9	9
753366	STOP	n/a	LTP336	ltpFR2	6	n/a	n/a	n/a	7	n/a	n/a	n/a	n/a
755307	REC_START	n/a	LTP336	ltpFR2	6	4	n/a	n/a	n/a	n/a	0	0	0
756264	REC_WORD	wordpools/wasnorm_wordpool_576.txt	LTP336	ltpFR2	6	4	LAVA	804	n/a	n/a	0	0	0
757988	REC_WORD	wordpools/wasnorm_wordpool_576.txt	LTP336	ltpFR2	6	4	TRIBE	1505	n/a	n/a	0	0	0
759763	REC_WORD	wordpools/wasnorm_wordpool_576.txt	LTP336	ltpFR2	6	4	OX	994	n/a	n/a	0	0	0
761546	REC_WORD	wordpools/wasnorm_wordpool_576.txt	LTP336	ltpFR2	6	4	BISON	131	n/a	n/a	0	0	0
764999	REC_WORD	wordpools/wasnorm_wordpool_576.txt	LTP336	ltpFR2	6	4	COFFEE	341	n/a	n/a	0	0	0
766994	REC_WORD	wordpools/wasnorm_wordpool_576.txt	LTP336	ltpFR2	6	4	SEAL	1262	n/a	n/a	0	0	0
769239	REC_WORD	wordpools/wasnorm_wordpool_576.txt	LTP336	ltpFR2	6	4	PISTON	1076	n/a	n/a	0	0	0
771245	REC_WORD	wordpools/wasnorm_wordpool_576.txt	LTP336	ltpFR2	6	4	GRAPE	654	n/a	n/a	0	0	0
782230	REC_WORD	wordpools/wasnorm_wordpool_576.txt	LTP336	ltpFR2	6	4	PANTHER	1009	n/a	n/a	0	0	0
845767	WORD	wordpools/wasnorm_wordpool_576.txt	LTP336	ltpFR2	6	5	OMELET	976	n/a	n/a	0	0	0
848448	WORD	wordpools/wasnorm_wordpool_576.txt	LTP336	ltpFR2	6	5	XEROX	1628	n/a	n/a	0	0	0
850881	WORD	wordpools/wasnorm_wordpool_576.txt	LTP336	ltpFR2	6	5	OFFICE	972	n/a	n/a	0	0	0
853362	WORD	wordpools/wasnorm_wordpool_576.txt	LTP336	ltpFR2	6	5	TEMPLE	1448	n/a	n/a	0	0	0
855946	WORD	wordpools/wasnorm_wordpool_576.txt	LTP336	ltpFR2	6	5	FEMALE	559	n/a	n/a	0	0	0
858694	WORD	wordpools/wasnorm_wordpool_576.txt	LTP336	ltpFR2	6	5	MATTRESS	879	n/a	n/a	0	0	0
861459	WORD	wordpools/wasnorm_wordpool_576.txt	LTP336	ltpFR2	6	5	GREASE	660	n/a	n/a	0	0	0
864009	WORD	wordpools/wasnorm_wordpool_576.txt	LTP336	ltpFR2	6	5	COLLEGE	346	n/a	n/a	0	0	0
866774	WORD	wordpools/wasnorm_wordpool_576.txt	LTP336	ltpFR2	6	5	MILK	895	n/a	n/a	0	0	0
869239	WORD	wordpools/wasnorm_wordpool_576.txt	LTP336	ltpFR2	6	5	MISSILE	900	n/a	n/a	0	0	0
872022	WORD	wordpools/wasnorm_wordpool_576.txt	LTP336	ltpFR2	6	5	HIKER	708	n/a	n/a	0	0	0
874586	WORD	wordpools/wasnorm_wordpool_576.txt	LTP336	ltpFR2	6	5	SUMMIT	1405	n/a	n/a	0	0	0
877135	WORD	wordpools/wasnorm_wordpool_576.txt	LTP336	ltpFR2	6	5	SNAIL	1332	n/a	n/a	0	0	0
879735	WORD	wordpools/wasnorm_wordpool_576.txt	LTP336	ltpFR2	6	5	SOFTBALL	1343	n/a	n/a	0	0	0
882433	WORD	wordpools/wasnorm_wordpool_576.txt	LTP336	ltpFR2	6	5	PEACH	1031	n/a	n/a	0	0	0
885049	WORD	wordpools/wasnorm_wordpool_576.txt	LTP336	ltpFR2	6	5	NECKLACE	940	n/a	n/a	0	0	0
887530	WORD	wordpools/wasnorm_wordpool_576.txt	LTP336	ltpFR2	6	5	HIGHWAY	707	n/a	n/a	0	0	0
889980	WORD	wordpools/wasnorm_wordpool_576.txt	LTP336	ltpFR2	6	5	ROBBER	1197	n/a	n/a	0	0	0
892545	WORD	wordpools/wasnorm_wordpool_576.txt	LTP336	ltpFR2	6	5	PASSAGE	1019	n/a	n/a	0	0	0
895243	WORD	wordpools/wasnorm_wordpool_576.txt	LTP336	ltpFR2	6	5	MARINE	869	n/a	n/a	0	0	0
897777	WORD	wordpools/wasnorm_wordpool_576.txt	LTP336	ltpFR2	6	5	CHAPEL	280	n/a	n/a	0	0	0
900441	WORD	wordpools/wasnorm_wordpool_576.txt	LTP336	ltpFR2	6	5	BEAKER	104	n/a	n/a	0	0	0
903074	WORD	wordpools/wasnorm_wordpool_576.txt	LTP336	ltpFR2	6	5	CHEMIST	292	n/a	n/a	0	0	0
905505	WORD	wordpools/wasnorm_wordpool_576.txt	LTP336	ltpFR2	6	5	YACHT	1629	n/a	n/a	0	0	0
907122	START	n/a	LTP336	ltpFR2	6	n/a	n/a	n/a	8	n/a	n/a	n/a	n/a
908294	DISTRACTOR	n/a	LTP336	ltpFR2	6	5	n/a	n/a	n/a	n/a	0	0	0
908304	PROB	n/a	LTP336	ltpFR2	6	n/a	n/a	n/a	8	19	6	6	7
911170	PROB	n/a	LTP336	ltpFR2	6	n/a	n/a	n/a	8	10	2	6	2
912569	PROB	n/a	LTP336	ltpFR2	6	n/a	n/a	n/a	8	16	4	5	7
914501	PROB	n/a	LTP336	ltpFR2	6	n/a	n/a	n/a	8	9	1	4	4
915868	PROB	n/a	LTP336	ltpFR2	6	n/a	n/a	n/a	8	8	3	3	2
917583	PROB	n/a	LTP336	ltpFR2	6	n/a	n/a	n/a	8	16	8	7	1
920067	PROB	n/a	LTP336	ltpFR2	6	n/a	n/a	n/a	8	8	2	1	5
921966	PROB	n/a	LTP336	ltpFR2	6	n/a	n/a	n/a	8	19	6	4	9
923547	PROB	n/a	LTP336	ltpFR2	6	n/a	n/a	n/a	8	11	2	4	5
925781	PROB	n/a	LTP336	ltpFR2	6	n/a	n/a	n/a	8	16	8	1	7
927597	PROB	n/a	LTP336	ltpFR2	6	n/a	n/a	n/a	8	15	1	9	5
929228	PROB	n/a	LTP336	ltpFR2	6	n/a	n/a	n/a	8	10	1	3	6
930459	STOP	n/a	LTP336	ltpFR2	6	n/a	n/a	n/a	8	n/a	n/a	n/a	n/a
932911	REC_START	n/a	LTP336	ltpFR2	6	5	n/a	n/a	n/a	n/a	0	0	0
934361	REC_WORD	wordpools/wasnorm_wordpool_576.txt	LTP336	ltpFR2	6	5	MILK	895	n/a	n/a	0	0	0
936259	REC_WORD_VV	wordpools/wasnorm_wordpool_576.txt	LTP336	ltpFR2	6	5	<>	-1	n/a	n/a	0	0	0
937922	REC_WORD	wordpools/wasnorm_wordpool_576.txt	LTP336	ltpFR2	6	5	OFFICE	972	n/a	n/a	0	0	0
939025	REC_WORD	wordpools/wasnorm_wordpool_576.txt	LTP336	ltpFR2	6	5	OFFICE	972	n/a	n/a	0	0	0
949705	REC_WORD	wordpools/wasnorm_wordpool_576.txt	LTP336	ltpFR2	6	5	BEAKER	104	n/a	n/a	0	0	0
951588	REC_WORD	wordpools/wasnorm_wordpool_576.txt	LTP336	ltpFR2	6	5	CHAPEL	280	n/a	n/a	0	0	0
954492	REC_WORD	wordpools/wasnorm_wordpool_576.txt	LTP336	ltpFR2	6	5	CHEMIST	292	n/a	n/a	0	0	0
962603	REC_WORD	wordpools/wasnorm_wordpool_576.txt	LTP336	ltpFR2	6	5	COLLEGE	346	n/a	n/a	0	0	0
1023369	WORD	wordpools/wasnorm_wordpool_576.txt	LTP336	ltpFR2	6	6	BURGLAR	200	n/a	n/a	0	0	0
1025935	WORD	wordpools/wasnorm_wordpool_576.txt	LTP336	ltpFR2	6	6	PLAYGROUND	1087	n/a	n/a	0	0	0
1028417	WORD	wordpools/wasnorm_wordpool_576.txt	LTP336	ltpFR2	6	6	MASK	876	n/a	n/a	0	0	0
1030950	WORD	wordpools/wasnorm_wordpool_576.txt	LTP336	ltpFR2	6	6	CAFE	216	n/a	n/a	0	0	0
1033514	WORD	wordpools/wasnorm_wordpool_576.txt	LTP336	ltpFR2	6	6	SNACK	1331	n/a	n/a	0	0	0
1036296	WORD	wordpools/wasnorm_wordpool_576.txt	LTP336	ltpFR2	6	6	CRICKET	408	n/a	n/a	0	0	0
1038813	WORD	wordpools/wasnorm_wordpool_576.txt	LTP336	ltpFR2	6	6	DRESSER	496	n/a	n/a	0	0	0
1041444	WORD	wordpools/wasnorm_wordpool_576.txt	LTP336	ltpFR2	6	6	WASHER	1592	n/a	n/a	0	0	0
1043977	WORD	wordpools/wasnorm_wordpool_576.txt	LTP336	ltpFR2	6	6	LONDON	843	n/a	n/a	0	0	0
1046793	WORD	wordpools/wasnorm_wordpool_576.txt	LTP336	ltpFR2	6	6	CONVICT	371	n/a	n/a	0	0	0
1049307	WORD	wordpools/wasnorm_wordpool_576.txt	LTP336	ltpFR2	6	6	POLICE	1098	n/a	n/a	0	0	0
1052007	WORD	wordpools/wasnorm_wordpool_576.txt	LTP336	ltpFR2	6	6	DRINK	498	n/a	n/a	0	0	0
1054806	WORD	wordpools/wasnorm_wordpool_576.txt	LTP336	ltpFR2	6	6	CHAMPAGNE	278	n/a	n/a	0	0	0
1057570	WORD	wordpools/wasnorm_wordpool_576.txt	LTP336	ltpFR2	6	6	BANK	83	n/a	n/a	0	0	0
1060020	WORD	wordpools/wasnorm_wordpool_576.txt	LTP336	ltpFR2	6	6	FRECKLE	602	n/a	n/a	0	0	0
1062602	WORD	wordpools/wasnorm_wordpool_576.txt	LTP336	ltpFR2	6	6	DINER	467	n/a	n/a	0	0	0
1065350	WORD	wordpools/wasnorm_wordpool_576.txt	LTP336	ltpFR2	6	6	CONTRACT	368	n/a	n/a	0	0	0
1068050	WORD	wordpools/wasnorm_wordpool_576.txt	LTP336	ltpFR2	6	6	COURSE	390	n/a	n/a	0	0	0
1070632	WORD	wordpools/wasnorm_wordpool_576.txt	LTP336	ltpFR2	6	6	ATOM	55	n/a	n/a	0	0	0
1073246	WORD	wordpools/wasnorm_wordpool_576.txt	LTP336	ltpFR2	6	6	GYMNAST	675	n/a	n/a	0	0	0
1075879	WORD	wordpools/wasnorm_wordpool_576.txt	LTP336	ltpFR2	6	6	AIRPORT	13	n/a	n/a	0	0	0
1078411	WORD	wordpools/wasnorm_wordpool_576.txt	LTP336	ltpFR2	6	6	SERVER	1272	n/a	n/a	0	0	0
1080960	WORD	wordpools/wasnorm_wordpool_576.txt	LTP336	ltpFR2	6	6	DUST	508	n/a	n/a	0	0	0
1083759	WORD	wordpools/wasnorm_wordpool_576.txt	LTP336	ltpFR2	6	6	GHETTO	633	n/a	n/a	0	0	0
1085374	START	n/a	LTP336	ltpFR2	6	n/a	n/a	n/a	9	n/a	n/a	n/a	n/a
1086389	DISTRACTOR	n/a	LTP336	ltpFR2	6	6	n/a	n/a	n/a	n/a	0	0	0
1086390	PROB	n/a	LTP336	ltpFR2	6	n/a	n/a	n/a	9	17	6	2	9
1090155	PROB	n/a	LTP336	ltpFR2	6	n/a	n/a	n/a	9	15	3	4	8
1092638	PROB	n/a	LTP336	ltpFR2	6	n/a	n/a	n/a	9	20	9	6	5
1095503	PROB	n/a	LTP336	ltpFR2	6	n/a	n/a	n/a	9	17	6	5	6
1097302	PROB	n/a	LTP336	ltpFR2	6	n/a	n/a	n/a	9	24	8	9	7
1100851	PROB	n/a	LTP336	ltpFR2	6	n/a	n/a	n/a	9	8	1	2	5
1102967	PROB	n/a	LTP336	ltpFR2	6	n/a	n/a	n/a	9	16	7	2	7
1104766	PROB	n/a	LTP336	ltpFR2	6	n/a	n/a	n/a	9	15	5	7	3
1106331	PROB	n/a	LTP336	ltpFR2	6	n/a	n/a	n/a	9	25	8	9	8
1108930	STOP	n/a	LTP336	ltpFR2	6	n/a	n/a	n/a	9	n/a	n/a	n/a	n/a
1111246	REC_START	n/a	LTP336	ltpFR2	6	6	n/a	n/a	n/a	n/a	0	0	0
1112496	REC_WORD	wordpools/wasnorm_wordpool_576.txt	LTP336	ltpFR2	6	6	CONVICT	371	n/a	n/a	0	0	0
1113937	REC_WORD	wordpools/wasnorm_wordpool_576.txt	LTP336	ltpFR2	6	6	BURGLAR	200	n/a	n/a	0	0	0
1115348	REC_WORD	wordpools/wasnorm_wordpool_576.txt	LTP336	ltpFR2	6	6	CHAMPAGNE	278	n/a	n/a	0	0	0
1117509	REC_WORD	wordpools/wasnorm_wordpool_576.txt	LTP336	ltpFR2	6	6	DRINK	498	n/a	n/a	0	0	0
1119012	REC_WORD	wordpools/wasnorm_wordpool_576.txt	LTP336	ltpFR2	6	6	COURSE	390	n/a	n/a	0	0	0
1121798	REC_WORD	wordpools/wasnorm_wordpool_576.txt	LTP336	ltpFR2	6	6	ATOM	55	n/a	n/a	0	0	0
1179090	REC_WORD_VV	wordpools/wasnorm_wordpool_576.txt	LTP336	ltpFR2	6	6	<>	-1	n/a	n/a	0	0	0
1201672	DISTRACTOR	n/a	LTP336	ltpFR2	6	7	n/a	n/a	n/a	n/a	0	0	0
1201673	START	n/a	LTP336	ltpFR2	6	n/a	n/a	n/a	10	n/a	n/a	n/a	n/a
1201689	PROB	n/a	LTP336	ltpFR2	6	n/a	n/a	n/a	10	7	2	2	3
1204871	PROB	n/a	LTP336	ltpFR2	6	n/a	n/a	n/a	10	15	6	6	3
1206403	PROB	n/a	LTP336	ltpFR2	6	n/a	n/a	n/a	10	14	8	1	5
1208185	PROB	n/a	LTP336	ltpFR2	6	n/a	n/a	n/a	10	19	9	7	3
1209919	PROB	n/a	LTP336	ltpFR2	6	n/a	n/a	n/a	10	14	6	5	3
1211885	PROB	n/a	LTP336	ltpFR2	6	n/a	n/a	n/a	10	24	7	8	9
1214249	PROB	n/a	LTP336	ltpFR2	6	n/a	n/a	n/a	10	14	1	7	6
1215983	PROB	n/a	LTP336	ltpFR2	6	n/a	n/a	n/a	10	18	7	8	3
1217765	PROB	n/a	LTP336	ltpFR2	6	n/a	n/a	n/a	10	16	6	6	4
1219480	PROB	n/a	LTP336	ltpFR2	6	n/a	n/a	n/a	10	22	7	6	9
1222713	PROB	n/a	LTP336	ltpFR2	6	n/a	n/a	n/a	10	18	8	6	4
1224540	STOP	n/a	LTP336	ltpFR2	6	n/a	n/a	n/a	10	n/a	n/a	n/a	n/a
1226628	WORD	wordpools/wasnorm_wordpool_576.txt	LTP336	ltpFR2	6	7	TROMBONE	1508	n/a	n/a	0	0	0
1229292	WORD	wordpools/wasnorm_wordpool_576.txt	LTP336	ltpFR2	6	7	SWITCH	1422	n/a	n/a	0	0	0
1231892	WORD	wordpools/wasnorm_wordpool_576.txt	LTP336	ltpFR2	6	7	BEAST	108	n/a	n/a	0	0	0
1234624	WORD	wordpools/wasnorm_wordpool_576.txt	LTP336	ltpFR2	6	7	BEAVER	109	n/a	n/a	0	0	0
1237355	WORD	wordpools/wasnorm_wordpool_576.txt	LTP336	ltpFR2	6	7	CUPBOARD	425	n/a	n/a	0	0	0
1240104	WORD	wordpools/wasnorm_wordpool_576.txt	LTP336	ltpFR2	6	7	CHIPMUNK	304	n/a	n/a	0	0	0
1242721	WORD	wordpools/wasnorm_wordpool_576.txt	LTP336	ltpFR2	6	7	PICNIC	1060	n/a	n/a	0	0	0
1245552	WORD	wordpools/wasnorm_wordpool_576.txt	LTP336	ltpFR2	6	7	TEACHER	1440	n/a	n/a	0	0	0
1248150	WORD	wordpools/wasnorm_wordpool_576.txt	LTP336	ltpFR2	6	7	WORLD	1622	n/a	n/a	0	0	0
1250900	WORD	wordpools/wasnorm_wordpool_576.txt	LTP336	ltpFR2	6	7	COMET	353	n/a	n/a	0	0	0
1253666	WORD	wordpools/wasnorm_wordpool_576.txt	LTP336	ltpFR2	6	7	JEANS	752	n/a	n/a	0	0	0
1256447	WORD	wordpools/wasnorm_wordpool_576.txt	LTP336	ltpFR2	6	7	CRAB	397	n/a	n/a	0	0	0
1259063	WORD	wordpools/wasnorm_wordpool_576.txt	LTP336	ltpFR2	6	7	STATUE	1374	n/a	n/a	0	0	0
1261812	WORD	wordpools/wasnorm_wordpool_576.txt	LTP336	ltpFR2	6	7	THREAD	1460	n/a	n/a	0	0	0
1264476	WORD	wordpools/wasnorm_wordpool_576.txt	LTP336	ltpFR2	6	7	SUNRISE	1407	n/a	n/a	0	0	0
1266993	WORD	wordpools/wasnorm_wordpool_576.txt	LTP336	ltpFR2	6	7	KEEPER	769	n/a	n/a	0	0	0
1269557	WORD	wordpools/wasnorm_wordpool_576.txt	LTP336	ltpFR2	6	7	MOTEL	919	n/a	n/a	0	0	0
1272057	WORD	wordpools/wasnorm_wordpool_576.txt	LTP336	ltpFR2	6	7	CEILING	265	n/a	n/a	0	0	0
1274723	WORD	wordpools/wasnorm_wordpool_576.txt	LTP336	ltpFR2	6	7	COOKBOOK	373	n/a	n/a	0	0	0
1277421	WORD	wordpools/wasnorm_wordpool_576.txt	LTP336	ltpFR2	6	7	PRINCE	1124	n/a	n/a	0	0	0
1279987	WORD	wordpools/wasnorm_wordpool_576.txt	LTP336	ltpFR2	6	7	PALACE	1006	n/a	n/a	0	0	0
1282603	WORD	wordpools/wasnorm_wordpool_576.txt	LTP336	ltpFR2	6	7	COUSIN	392	n/a	n/a	0	0	0
1285052	WORD	wordpools/wasnorm_wordpool_576.txt	LTP336	ltpFR2	6	7	POCKET	1093	n/a	n/a	0	0	0
1287850	WORD	wordpools/wasnorm_wordpool_576.txt	LTP336	ltpFR2	6	7	CRATER	400	n/a	n/a	0	0	0
1289465	START	n/a	LTP336	ltpFR2	6	n/a	n/a	n/a	11	n/a	n/a	n/a	n/a
1290649	DISTRACTOR	n/a	LTP336	ltpFR2	6	7	n/a	n/a	n/a	n/a	0	0	0
1290666	PROB	n/a	LTP336	ltpFR2	6	n/a	n/a	n/a	11	15	6	2	7
1294313	PROB	n/a	LTP336	ltpFR2	6	n/a	n/a	n/a	11	13	7	5	1
1296245	PROB	n/a	LTP336	ltpFR2	6	n/a	n/a	n/a	11	20	9	8	3
1300327	PROB	n/a	LTP336	ltpFR2	6	n/a	n/a	n/a	11	8	4	2	2
1301911	PROB	n/a	LTP336	ltpFR2	6	n/a	n/a	n/a	11	14	2	3	9
1304043	PROB	n/a	LTP336	ltpFR2	6	n/a	n/a	n/a	11	13	6	4	3
1305491	PROB	n/a	LTP336	ltpFR2	6	n/a	n/a	n/a	11	15	7	5	3
1307174	PROB	n/a	LTP336	ltpFR2	6	n/a	n/a	n/a	11	18	1	9	8
1308691	PROB	n/a	LTP336	ltpFR2	6	n/a	n/a	n/a	11	26	8	9	9
1313465	STOP	n/a	LTP336	ltpFR2	6	n/a	n/a	n/a	11	n/a	n/a	n/a	n/a
1315255	REC_START	n/a	LTP336	ltpFR2	6	7	n/a	n/a	n/a	n/a	0	0	0
1316406	REC_WORD	wordpools/wasnorm_wordpool_576.txt	LTP336	ltpFR2	6	7	DRINK	498	n/a	n/a	0	0	0
1317181	REC_WORD_VV	wordpools/wasnorm_wordpool_576.txt	LTP336	ltpFR2	6	7	<>	-1	n/a	n/a	0	0	0
1317796	REC_WORD	wordpools/wasnorm_wordpool_576.txt	LTP336	ltpFR2	6	7	PALACE	1006	n/a	n/a	0	0	0
1319171	REC_WORD	wordpools/wasnorm_wordpool_576.txt	LTP336	ltpFR2	6	7	CRATER	400	n/a	n/a	0	0	0
1321173	REC_WORD	wordpools/wasnorm_wordpool_576.txt	LTP336	ltpFR2	6	7	TROMBONE	1508	n/a	n/a	0	0	0
1405697	WORD	wordpools/wasnorm_wordpool_576.txt	LTP336	ltpFR2	6	8	WORKER	1621	n/a	n/a	0	0	0
1408178	WORD	wordpools/wasnorm_wordpool_576.txt	LTP336	ltpFR2	6	8	FLAG	573	n/a	n/a	0	0	0
1410678	WORD	wordpools/wasnorm_wordpool_576.txt	LTP336	ltpFR2	6	8	BUTCHER	203	n/a	n/a	0	0	0
1413359	WORD	wordpools/wasnorm_wordpool_576.txt	LTP336	ltpFR2	6	8	CLAMP	316	n/a	n/a	0	0	0
1415876	WORD	wordpools/wasnorm_wordpool_576.txt	LTP336	ltpFR2	6	8	DRESS	495	n/a	n/a	0	0	0
1418590	WORD	wordpools/wasnorm_wordpool_576.txt	LTP336	ltpFR2	6	8	RIVER	1194	n/a	n/a	0	0	0
1421256	WORD	wordpools/wasnorm_wordpool_576.txt	LTP336	ltpFR2	6	8	STREAM	1392	n/a	n/a	0	0	0
1424039	WORD	wordpools/wasnorm_wordpool_576.txt	LTP336	ltpFR2	6	8	MEAT	883	n/a	n/a	0	0	0
1426704	WORD	wordpools/wasnorm_wordpool_576.txt	LTP336	ltpFR2	6	8	CARROT	249	n/a	n/a	0	0	0
1429135	WORD	wordpools/wasnorm_wordpool_576.txt	LTP336	ltpFR2	6	8	FOX	598	n/a	n/a	0	0	0
1431902	WORD	wordpools/wasnorm_wordpool_576.txt	LTP336	ltpFR2	6	8	TRACTOR	1493	n/a	n/a	0	0	0
1434400	WORD	wordpools/wasnorm_wordpool_576.txt	LTP336	ltpFR2	6	8	COTTAGE	384	n/a	n/a	0	0	0
1437148	WORD	wordpools/wasnorm_wordpool_576.txt	LTP336	ltpFR2	6	8	DORM	488	n/a	n/a	0	0	0
1439598	WORD	wordpools/wasnorm_wordpool_576.txt	LTP336	ltpFR2	6	8	PLASTER	1085	n/a	n/a	0	0	0
1442379	WORD	wordpools/wasnorm_wordpool_576.txt	LTP336	ltpFR2	6	8	LILY	821	n/a	n/a	0	0	0
1444946	WORD	wordpools/wasnorm_wordpool_576.txt	LTP336	ltpFR2	6	8	CLOCK	325	n/a	n/a	0	0	0
1447577	WORD	wordpools/wasnorm_wordpool_576.txt	LTP336	ltpFR2	6	8	CROWN	415	n/a	n/a	0	0	0
1450209	WORD	wordpools/wasnorm_wordpool_576.txt	LTP336	ltpFR2	6	8	GALLON	618	n/a	n/a	0	0	0
1452976	WORD	wordpools/wasnorm_wordpool_576.txt	LTP336	ltpFR2	6	8	ANTLER	29	n/a	n/a	0	0	0
1455674	WORD	wordpools/wasnorm_wordpool_576.txt	LTP336	ltpFR2	6	8	FINGER	567	n/a	n/a	0	0	0
1458405	WORD	wordpools/wasnorm_wordpool_576.txt	LTP336	ltpFR2	6	8	OUTFIT	988	n/a	n/a	0	0	0
1461055	WORD	wordpools/wasnorm_wordpool_576.txt	LTP336	ltpFR2	6	8	STAR	1373	n/a	n/a	0	0	0
1463570	WORD	wordpools/wasnorm_wordpool_576.txt	LTP336	ltpFR2	6	8	LEADER	807	n/a	n/a	0	0	0
1466020	WORD	wordpools/wasnorm_wordpool_576.txt	LTP336	ltpFR2	6	8	BRANDY	169	n/a	n/a	0	0	0
1467636	START	n/a	LTP336	ltpFR2	6	n/a	n/a	n/a	12	n/a	n/a	n/a	n/a
1468538	DISTRACTOR	n/a	LTP336	ltpFR2	6	8	n/a	n/a	n/a	n/a	0	0	0
1468551	PROB	n/a	LTP336	ltpFR2	6	n/a	n/a	n/a	12	22	5	8	9
1473365	PROB	n/a	LTP336	ltpFR2	6	n/a	n/a	n/a	12	15	5	4	6
1475148	PROB	n/a	LTP336	ltpFR2	6	n/a	n/a	n/a	12	25	7	9	9
1476881	PROB	n/a	LTP336	ltpFR2	6	n/a	n/a	n/a	12	20	6	9	5
1479697	PROB	n/a	LTP336	ltpFR2	6	n/a	n/a	n/a	12	20	3	8	9
1481979	PROB	n/a	LTP336	ltpFR2	6	n/a	n/a	n/a	12	9	7	1	1
1483311	PROB	n/a	LTP336	ltpFR2	6	n/a	n/a	n/a	12	23	9	6	8
1486309	PROB	n/a	LTP336	ltpFR2	6	n/a	n/a	n/a	12	18	1	9	8
1488075	PROB	n/a	LTP336	ltpFR2	6	n/a	n/a	n/a	12	22	6	8	8
1490614	STOP	n/a	LTP336	ltpFR2	6	n/a	n/a	n/a	12	n/a	n/a	n/a	n/a
1493573	REC_START	n/a	LTP336	ltpFR2	6	8	n/a	n/a	n/a	n/a	0	0	0
1494761	REC_WORD	wordpools/wasnorm_wordpool_576.txt	LTP336	ltpFR2	6	8	RIVER	1194	n/a	n/a	0	0	0
1495582	REC_WORD_VV	wordpools/wasnorm_wordpool_576.txt	LTP336	ltpFR2	6	8	<>	-1	n/a	n/a	0	0	0
1496356	REC_WORD	wordpools/wasnorm_wordpool_576.txt	LTP336	ltpFR2	6	8	STREAM	1392	n/a	n/a	0	0	0
1503906	REC_WORD	wordpools/wasnorm_wordpool_576.txt	LTP336	ltpFR2	6	8	GALLON	618	n/a	n/a	0	0	0
1570121	REST_REWET	n/a	LTP336	ltpFR2	6	8	n/a	n/a	n/a	n/a	0	0	0
1685486	DISTRACTOR	n/a	LTP336	ltpFR2	6	9	n/a	n/a	n/a	n/a	0	0	0
1685486	START	n/a	LTP336	ltpFR2	6	n/a	n/a	n/a	13	n/a	n/a	n/a	n/a
1685503	PROB	n/a	LTP336	ltpFR2	6	n/a	n/a	n/a	13	21	6	8	7
1688969	PROB	n/a	LTP336	ltpFR2	6	n/a	n/a	n/a	13	11	2	3	6
1691018	PROB	n/a	LTP336	ltpFR2	6	n/a	n/a	n/a	13	14	8	4	2
1694499	PROB	n/a	LTP336	ltpFR2	6	n/a	n/a	n/a	13	11	3	5	1
1696765	PROB	n/a	LTP336	ltpFR2	6	n/a	n/a	n/a	13	13	2	9	2
1700129	PROB	n/a	LTP336	ltpFR2	6	n/a	n/a	n/a	13	17	7	4	6
1701930	PROB	n/a	LTP336	ltpFR2	6	n/a	n/a	n/a	13	19	7	5	8
1705294	PROB	n/a	LTP336	ltpFR2	6	n/a	n/a	n/a	13	10	2	2	6
1709485	STOP	n/a	LTP336	ltpFR2	6	n/a	n/a	n/a	13	n/a	n/a	n/a	n/a
1710358	WORD	wordpools/wasnorm_wordpool_576.txt	LTP336	ltpFR2	6	9	CREATURE	403	n/a	n/a	0	0	0
1712858	WORD	wordpools/wasnorm_wordpool_576.txt	LTP336	ltpFR2	6	9	TRUCK	1512	n/a	n/a	0	0	0
1715372	WORD	wordpools/wasnorm_wordpool_576.txt	LTP336	ltpFR2	6	9	SWIMMER	1420	n/a	n/a	0	0	0
1717922	WORD	wordpools/wasnorm_wordpool_576.txt	LTP336	ltpFR2	6	9	SCULPTURE	1258	n/a	n/a	0	0	0
1720604	WORD	wordpools/wasnorm_wordpool_576.txt	LTP336	ltpFR2	6	9	COLONEL	348	n/a	n/a	0	0	0
1723186	WORD	wordpools/wasnorm_wordpool_576.txt	LTP336	ltpFR2	6	9	VALVE	1546	n/a	n/a	0	0	0
1725819	WORD	wordpools/wasnorm_wordpool_576.txt	LTP336	ltpFR2	6	9	BOARD	143	n/a	n/a	0	0	0
1728267	WORD	wordpools/wasnorm_wordpool_576.txt	LTP336	ltpFR2	6	9	BLACKBOARD	133	n/a	n/a	0	0	0
1730716	WORD	wordpools/wasnorm_wordpool_576.txt	LTP336	ltpFR2	6	9	CHAUFFEUR	283	n/a	n/a	0	0	0
1733514	WORD	wordpools/wasnorm_wordpool_576.txt	LTP336	ltpFR2	6	9	CYCLONE	431	n/a	n/a	0	0	0
1736246	WORD	wordpools/wasnorm_wordpool_576.txt	LTP336	ltpFR2	6	9	SALAD	1224	n/a	n/a	0	0	0
1738713	WORD	wordpools/wasnorm_wordpool_576.txt	LTP336	ltpFR2	6	9	AIRPLANE	12	n/a	n/a	0	0	0
1741477	WORD	wordpools/wasnorm_wordpool_576.txt	LTP336	ltpFR2	6	9	BUNNY	198	n/a	n/a	0	0	0
1744309	WORD	wordpools/wasnorm_wordpool_576.txt	LTP336	ltpFR2	6	9	COSTUME	383	n/a	n/a	0	0	0
1746759	WORD	wordpools/wasnorm_wordpool_576.txt	LTP336	ltpFR2	6	9	WARDROBE	1587	n/a	n/a	0	0	0
1749374	WORD	wordpools/wasnorm_wordpool_576.txt	LTP336	ltpFR2	6	9	BARLEY	88	n/a	n/a	0	0	0
1751824	WORD	wordpools/wasnorm_wordpool_576.txt	LTP336	ltpFR2	6	9	HATCHET	691	n/a	n/a	0	0	0
1754438	WORD	wordpools/wasnorm_wordpool_576.txt	LTP336	ltpFR2	6	9	POSSUM	1112	n/a	n/a	0	0	0
1757204	WORD	wordpools/wasnorm_wordpool_576.txt	LTP336	ltpFR2	6	9	SWAMP	1416	n/a	n/a	0	0	0
1759887	WORD	wordpools/wasnorm_wordpool_576.txt	LTP336	ltpFR2	6	9	EXPERT	543	n/a	n/a	0	0	0
1762468	WORD	wordpools/wasnorm_wordpool_576.txt	LTP336	ltpFR2	6	9	STICKER	1382	n/a	n/a	0	0	0
1765200	WORD	wordpools/wasnorm_wordpool_576.txt	LTP336	ltpFR2	6	9	LEOPARD	812	n/a	n/a	0	0	0
1768016	WORD	wordpools/wasnorm_wordpool_576.txt	LTP336	ltpFR2	6	9	MILDEW	893	n/a	n/a	0	0	0
1770665	WORD	wordpools/wasnorm_wordpool_576.txt	LTP336	ltpFR2	6	9	CELLAR	267	n/a	n/a	0	0	0
1772280	START	n/a	LTP336	ltpFR2	6	n/a	n/a	n/a	14	n/a	n/a	n/a	n/a
1773227	DISTRACTOR	n/a	LTP336	ltpFR2	6	9	n/a	n/a	n/a	n/a	0	0	0
1773230	PROB	n/a	LTP336	ltpFR2	6	n/a	n/a	n/a	14	6	2	1	3
1776528	PROB	n/a	LTP336	ltpFR2	6	n/a	n/a	n/a	14	7	3	1	3
1778444	PROB	n/a	LTP336	ltpFR2	6	n/a	n/a	n/a	14	17	7	5	5
1780293	PROB	n/a	LTP336	ltpFR2	6	n/a	n/a	n/a	14	17	2	6	9
1782893	PROB	n/a	LTP336	ltpFR2	6	n/a	n/a	n/a	14	18	2	8	8
1784659	PROB	n/a	LTP336	ltpFR2	6	n/a	n/a	n/a	14	17	9	2	6
1788373	PROB	n/a	LTP336	ltpFR2	6	n/a	n/a	n/a	14	17	7	7	3
1790139	PROB	n/a	LTP336	ltpFR2	6	n/a	n/a	n/a	14	15	2	7	6
1792938	PROB	n/a	LTP336	ltpFR2	6	n/a	n/a	n/a	14	13	6	6	1
1796279	STOP	n/a	LTP336	ltpFR2	6	n/a	n/a	n/a	14	n/a	n/a	n/a	n/a
1798219	REC_START	n/a	LTP336	ltpFR2	6	9	n/a	n/a	n/a	n/a	0	0	0
1799105	REC_WORD	wordpools/wasnorm_wordpool_576.txt	LTP336	ltpFR2	6	9	MEADOW	881	n/a	n/a	0	0	0
1800593	REC_WORD	wordpools/wasnorm_wordpool_576.txt	LTP336	ltpFR2	6	9	VALVE	1546	n/a	n/a	0	0	0
1802196	REC_WORD	wordpools/wasnorm_wordpool_576.txt	LTP336	ltpFR2	6	9	CREATURE	403	n/a	n/a	0	0	0
1804197	REC_WORD	wordpools/wasnorm_wordpool_576.txt	LTP336	ltpFR2	6	9	EXPERT	543	n/a	n/a	0	0	0
1806063	REC_WORD	wordpools/wasnorm_wordpool_576.txt	LTP336	ltpFR2	6	9	COLONEL	348	n/a	n/a	0	0	0
1809679	REC_WORD	wordpools/wasnorm_wordpool_576.txt	LTP336	ltpFR2	6	9	TRUCK	1512	n/a	n/a	0	0	0
1811528	REC_WORD	wordpools/wasnorm_wordpool_576.txt	LTP336	ltpFR2	6	9	BOARD	143	n/a	n/a	0	0	0
1813708	REC_WORD	wordpools/wasnorm_wordpool_576.txt	LTP336	ltpFR2	6	9	BLACKBOARD	133	n/a	n/a	0	0	0
1815445	REC_WORD	wordpools/wasnorm_wordpool_576.txt	LTP336	ltpFR2	6	9	CHAUFFEUR	283	n/a	n/a	0	0	0
1888662	WORD	wordpools/wasnorm_wordpool_576.txt	LTP336	ltpFR2	6	10	PRINCESS	1125	n/a	n/a	0	0	0
1891243	WORD	wordpools/wasnorm_wordpool_576.txt	LTP336	ltpFR2	6	10	BRIEFCASE	175	n/a	n/a	0	0	0
1893893	WORD	wordpools/wasnorm_wordpool_576.txt	LTP336	ltpFR2	6	10	BALLOON	75	n/a	n/a	0	0	0
1896341	WORD	wordpools/wasnorm_wordpool_576.txt	LTP336	ltpFR2	6	10	HANDBAG	684	n/a	n/a	0	0	0
1899139	WORD	wordpools/wasnorm_wordpool_576.txt	LTP336	ltpFR2	6	10	LADDER	793	n/a	n/a	0	0	0
1901722	WORD	wordpools/wasnorm_wordpool_576.txt	LTP336	ltpFR2	6	10	EGYPT	519	n/a	n/a	0	0	0
1904320	WORD	wordpools/wasnorm_wordpool_576.txt	LTP336	ltpFR2	6	10	STONE	1385	n/a	n/a	0	0	0
1906770	WORD	wordpools/wasnorm_wordpool_576.txt	LTP336	ltpFR2	6	10	LETTUCE	814	n/a	n/a	0	0	0
1909401	WORD	wordpools/wasnorm_wordpool_576.txt	LTP336	ltpFR2	6	10	MAMMAL	861	n/a	n/a	0	0	0
1911918	WORD	wordpools/wasnorm_wordpool_576.txt	LTP336	ltpFR2	6	10	BANKER	84	n/a	n/a	0	0	0
1914582	WORD	wordpools/wasnorm_wordpool_576.txt	LTP336	ltpFR2	6	10	TART	1436	n/a	n/a	0	0	0
1917264	WORD	wordpools/wasnorm_wordpool_576.txt	LTP336	ltpFR2	6	10	ICEBERG	731	n/a	n/a	0	0	0
1919714	WORD	wordpools/wasnorm_wordpool_576.txt	LTP336	ltpFR2	6	10	SPOUSE	1358	n/a	n/a	0	0	0
1922512	WORD	wordpools/wasnorm_wordpool_576.txt	LTP336	ltpFR2	6	10	PARTNER	1017	n/a	n/a	0	0	0
1925177	WORD	wordpools/wasnorm_wordpool_576.txt	LTP336	ltpFR2	6	10	KNIFE	785	n/a	n/a	0	0	0
1927794	WORD	wordpools/wasnorm_wordpool_576.txt	LTP336	ltpFR2	6	10	SCALPEL	1243	n/a	n/a	0	0	0
1930408	WORD	wordpools/wasnorm_wordpool_576.txt	LTP336	ltpFR2	6	10	BLOUSE	139	n/a	n/a	0	0	0
1933157	WORD	wordpools/wasnorm_wordpool_576.txt	LTP336	ltpFR2	6	10	DONKEY	484	n/a	n/a	0	0	0
1935824	WORD	wordpools/wasnorm_wordpool_576.txt	LTP336	ltpFR2	6	10	OZONE	996	n/a	n/a	0	0	0
1938255	WORD	wordpools/wasnorm_wordpool_576.txt	LTP336	ltpFR2	6	10	COCKTAIL	338	n/a	n/a	0	0	0
1941071	WORD	wordpools/wasnorm_wordpool_576.txt	LTP336	ltpFR2	6	10	PARROT	1015	n/a	n/a	0	0	0
1943820	WORD	wordpools/wasnorm_wordpool_576.txt	LTP336	ltpFR2	6	10	FLIPPER	580	n/a	n/a	0	0	0
1946351	WORD	wordpools/wasnorm_wordpool_576.txt	LTP336	ltpFR2	6	10	LUNCH	849	n/a	n/a	0	0	0
1948901	WORD	wordpools/wasnorm_wordpool_576.txt	LTP336	ltpFR2	6	10	BANQUET	86	n/a	n/a	0	0	0
1950516	START	n/a	LTP336	ltpFR2	6	n/a	n/a	n/a	15	n/a	n/a	n/a	n/a
1951534	DISTRACTOR	n/a	LTP336	ltpFR2	6	10	n/a	n/a	n/a	n/a	0	0	0
1951549	PROB	n/a	LTP336	ltpFR2	6	n/a	n/a	n/a	15	18	8	9	1
1954032	PROB	n/a	LTP336	ltpFR2	6	n/a	n/a	n/a	15	12	9	2	1
1955848	PROB	n/a	LTP336	ltpFR2	6	n/a	n/a	n/a	15	20	9	5	6
1957864	PROB	n/a	LTP336	ltpFR2	6	n/a	n/a	n/a	15	14	1	9	4
1959279	PROB	n/a	LTP336	ltpFR2	6	n/a	n/a	n/a	15	18	2	9	7
1961695	PROB	n/a	LTP336	ltpFR2	6	n/a	n/a	n/a	15	12	7	3	2
1963343	PROB	n/a	LTP336	ltpFR2	6	n/a	n/a	n/a	15	16	7	6	3
1966660	PROB	n/a	LTP336	ltpFR2	6	n/a	n/a	n/a	15	16	6	4	6
1969625	PROB	n/a	LTP336	ltpFR2	6	n/a	n/a	n/a	15	12	3	7	2
1971273	PROB	n/a	LTP336	ltpFR2	6	n/a	n/a	n/a	15	16	6	6	4
1973340	STOP	n/a	LTP336	ltpFR2	6	n/a	n/a	n/a	15	n/a	n/a	n/a	n/a
1976321	REC_START	n/a	LTP336	ltpFR2	6	10	n/a	n/a	n/a	n/a	0	0	0
1977385	REC_WORD	wordpools/wasnorm_wordpool_576.txt	LTP336	ltpFR2	6	10	BLOUSE	139	n/a	n/a	0	0	0
1978516	REC_WORD	wordpools/wasnorm_wordpool_576.txt	LTP336	ltpFR2	6	10	DONKEY	484	n/a	n/a	0	0	0
1979913	REC_WORD	wordpools/wasnorm_wordpool_576.txt	LTP336	ltpFR2	6	10	TART	1436	n/a	n/a	0	0	0
1981411	REC_WORD	wordpools/wasnorm_wordpool_576.txt	LTP336	ltpFR2	6	10	PARROT	1015	n/a	n/a	0	0	0
1984334	REC_WORD	wordpools/wasnorm_wordpool_576.txt	LTP336	ltpFR2	6	10	EGYPT	519	n/a	n/a	0	0	0
1988314	REC_WORD	wordpools/wasnorm_wordpool_576.txt	LTP336	ltpFR2	6	10	STONE	1385	n/a	n/a	0	0	0
1995068	REC_WORD	wordpools/wasnorm_wordpool_576.txt	LTP336	ltpFR2	6	10	LETTUCE	814	n/a	n/a	0	0	0
1997149	REC_WORD	wordpools/wasnorm_wordpool_576.txt	LTP336	ltpFR2	6	10	MAMMAL	861	n/a	n/a	0	0	0
2066764	WORD	wordpools/wasnorm_wordpool_576.txt	LTP336	ltpFR2	6	11	MARROW	872	n/a	n/a	0	0	0
2069446	WORD	wordpools/wasnorm_wordpool_576.txt	LTP336	ltpFR2	6	11	BACKBONE	66	n/a	n/a	0	0	0
2071945	WORD	wordpools/wasnorm_wordpool_576.txt	LTP336	ltpFR2	6	11	LOFT	840	n/a	n/a	0	0	0
2074744	WORD	wordpools/wasnorm_wordpool_576.txt	LTP336	ltpFR2	6	11	REPORT	1184	n/a	n/a	0	0	0
2077475	WORD	wordpools/wasnorm_wordpool_576.txt	LTP336	ltpFR2	6	11	WHISKERS	1605	n/a	n/a	0	0	0
2080291	WORD	wordpools/wasnorm_wordpool_576.txt	LTP336	ltpFR2	6	11	PADDING	999	n/a	n/a	0	0	0
2082890	WORD	wordpools/wasnorm_wordpool_576.txt	LTP336	ltpFR2	6	11	DIME	466	n/a	n/a	0	0	0
2085588	WORD	wordpools/wasnorm_wordpool_576.txt	LTP336	ltpFR2	6	11	GRAVEL	659	n/a	n/a	0	0	0
2088354	WORD	wordpools/wasnorm_wordpool_576.txt	LTP336	ltpFR2	6	11	GOBLIN	645	n/a	n/a	0	0	0
2090953	WORD	wordpools/wasnorm_wordpool_576.txt	LTP336	ltpFR2	6	11	SLIME	1327	n/a	n/a	0	0	0
2093635	WORD	wordpools/wasnorm_wordpool_576.txt	LTP336	ltpFR2	6	11	PUDDLE	1140	n/a	n/a	0	0	0
2096234	WORD	wordpools/wasnorm_wordpool_576.txt	LTP336	ltpFR2	6	11	RAZOR	1171	n/a	n/a	0	0	0
2098867	WORD	wordpools/wasnorm_wordpool_576.txt	LTP336	ltpFR2	6	11	STOMACH	1384	n/a	n/a	0	0	0
2101531	WORD	wordpools/wasnorm_wordpool_576.txt	LTP336	ltpFR2	6	11	BELLY	119	n/a	n/a	0	0	0
2104146	WORD	wordpools/wasnorm_wordpool_576.txt	LTP336	ltpFR2	6	11	BLADE	134	n/a	n/a	0	0	0
2106913	WORD	wordpools/wasnorm_wordpool_576.txt	LTP336	ltpFR2	6	11	MATCH	878	n/a	n/a	0	0	0
2109527	WORD	wordpools/wasnorm_wordpool_576.txt	LTP336	ltpFR2	6	11	THIEF	1456	n/a	n/a	0	0	0
2112011	WORD	wordpools/wasnorm_wordpool_576.txt	LTP336	ltpFR2	6	11	CREVICE	405	n/a	n/a	0	0	0
2114709	WORD	wordpools/wasnorm_wordpool_576.txt	LTP336	ltpFR2	6	11	MONEY	908	n/a	n/a	0	0	0
2117424	WORD	wordpools/wasnorm_wordpool_576.txt	LTP336	ltpFR2	6	11	LIVER	833	n/a	n/a	0	0	0
2120024	WORD	wordpools/wasnorm_wordpool_576.txt	LTP336	ltpFR2	6	11	TUTU	1524	n/a	n/a	0	0	0
2122488	WORD	wordpools/wasnorm_wordpool_576.txt	LTP336	ltpFR2	6	11	PERFUME	1049	n/a	n/a	0	0	0
2125154	WORD	wordpools/wasnorm_wordpool_576.txt	LTP336	ltpFR2	6	11	REBEL	1172	n/a	n/a	0	0	0
2127920	WORD	wordpools/wasnorm_wordpool_576.txt	LTP336	ltpFR2	6	11	MEDAL	885	n/a	n/a	0	0	0
2129535	START	n/a	LTP336	ltpFR2	6	n/a	n/a	n/a	16	n/a	n/a	n/a	n/a
2130433	DISTRACTOR	n/a	LTP336	ltpFR2	6	11	n/a	n/a	n/a	n/a	0	0	0
2130434	PROB	n/a	LTP336	ltpFR2	6	n/a	n/a	n/a	16	19	2	9	8
2133367	PROB	n/a	LTP336	ltpFR2	6	n/a	n/a	n/a	16	17	8	1	8
2135000	PROB	n/a	LTP336	ltpFR2	6	n/a	n/a	n/a	16	11	2	4	5
2136799	PROB	n/a	LTP336	ltpFR2	6	n/a	n/a	n/a	16	17	6	5	6
2138649	PROB	n/a	LTP336	ltpFR2	6	n/a	n/a	n/a	16	17	9	4	4
2141714	PROB	n/a	LTP336	ltpFR2	6	n/a	n/a	n/a	16	14	7	5	2
2143295	PROB	n/a	LTP336	ltpFR2	6	n/a	n/a	n/a	16	14	3	6	5
2144979	PROB	n/a	LTP336	ltpFR2	6	n/a	n/a	n/a	16	6	3	2	1
2146711	PROB	n/a	LTP336	ltpFR2	6	n/a	n/a	n/a	16	12	9	1	2
2148243	PROB	n/a	LTP336	ltpFR2	6	n/a	n/a	n/a	16	7	1	2	4
2150159	PROB	n/a	LTP336	ltpFR2	6	n/a	n/a	n/a	16	9	6	1	2
2152604	STOP	n/a	LTP336	ltpFR2	6	n/a	n/a	n/a	16	n/a	n/a	n/a	n/a
2155324	REC_START	n/a	LTP336	ltpFR2	6	11	n/a	n/a	n/a	n/a	0	0	0
2156446	REC_WORD	wordpools/wasnorm_wordpool_576.txt	LTP336	ltpFR2	6	11	REBEL	1172	n/a	n/a	0	0	0
2158921	REC_WORD_VV	wordpools/wasnorm_wordpool_576.txt	LTP336	ltpFR2	6	11	<>	-1	n/a	n/a	0	0	0
2160109	REC_WORD	wordpools/wasnorm_wordpool_576.txt	LTP336	ltpFR2	6	11	MEDAL	885	n/a	n/a	0	0	0
2201572	REC_WORD_VV	wordpools/wasnorm_wordpool_576.txt	LTP336	ltpFR2	6	11	<>	-1	n/a	n/a	0	0	0
2245767	WORD	wordpools/wasnorm_wordpool_576.txt	LTP336	ltpFR2	6	12	BROOK	177	n/a	n/a	0	0	0
2248215	WORD	wordpools/wasnorm_wordpool_576.txt	LTP336	ltpFR2	6	12	MARSH	874	n/a	n/a	0	0	0
2250831	WORD	wordpools/wasnorm_wordpool_576.txt	LTP336	ltpFR2	6	12	SPONGE	1355	n/a	n/a	0	0	0
2253279	WORD	wordpools/wasnorm_wordpool_576.txt	LTP336	ltpFR2	6	12	INFANT	737	n/a	n/a	0	0	0
2255862	WORD	wordpools/wasnorm_wordpool_576.txt	LTP336	ltpFR2	6	12	PORTRAIT	1111	n/a	n/a	0	0	0
2258427	WORD	wordpools/wasnorm_wordpool_576.txt	LTP336	ltpFR2	6	12	JELLY	755	n/a	n/a	0	0	0
2260910	WORD	wordpools/wasnorm_wordpool_576.txt	LTP336	ltpFR2	6	12	HARP	689	n/a	n/a	0	0	0
2263341	WORD	wordpools/wasnorm_wordpool_576.txt	LTP336	ltpFR2	6	12	GAVEL	627	n/a	n/a	0	0	0
2265908	WORD	wordpools/wasnorm_wordpool_576.txt	LTP336	ltpFR2	6	12	DOUGHNUT	490	n/a	n/a	0	0	0
2268339	WORD	wordpools/wasnorm_wordpool_576.txt	LTP336	ltpFR2	6	12	IGLOO	734	n/a	n/a	0	0	0
2271104	WORD	wordpools/wasnorm_wordpool_576.txt	LTP336	ltpFR2	6	12	TYPIST	1532	n/a	n/a	0	0	0
2273654	WORD	wordpools/wasnorm_wordpool_576.txt	LTP336	ltpFR2	6	12	SCRIBBLE	1256	n/a	n/a	0	0	0
2276085	WORD	wordpools/wasnorm_wordpool_576.txt	LTP336	ltpFR2	6	12	FILM	565	n/a	n/a	0	0	0
2278685	WORD	wordpools/wasnorm_wordpool_576.txt	LTP336	ltpFR2	6	12	WIFE	1609	n/a	n/a	0	0	0
2281383	WORD	wordpools/wasnorm_wordpool_576.txt	LTP336	ltpFR2	6	12	CHILD	299	n/a	n/a	0	0	0
2283899	WORD	wordpools/wasnorm_wordpool_576.txt	LTP336	ltpFR2	6	12	PEBBLE	1035	n/a	n/a	0	0	0
2286547	WORD	wordpools/wasnorm_wordpool_576.txt	LTP336	ltpFR2	6	12	SCARF	1246	n/a	n/a	0	0	0
2289047	WORD	wordpools/wasnorm_wordpool_576.txt	LTP336	ltpFR2	6	12	RIFLE	1192	n/a	n/a	0	0	0
2291478	WORD	wordpools/wasnorm_wordpool_576.txt	LTP336	ltpFR2	6	12	HOOD	714	n/a	n/a	0	0	0
2294277	WORD	wordpools/wasnorm_wordpool_576.txt	LTP336	ltpFR2	6	12	STAMP	1370	n/a	n/a	0	0	0
2296727	WORD	wordpools/wasnorm_wordpool_576.txt	LTP336	ltpFR2	6	12	GARBAGE	622	n/a	n/a	0	0	0
2299258	WORD	wordpools/wasnorm_wordpool_576.txt	LTP336	ltpFR2	6	12	FREEZER	604	n/a	n/a	0	0	0
2301975	WORD	wordpools/wasnorm_wordpool_576.txt	LTP336	ltpFR2	6	12	SKILLET	1317	n/a	n/a	0	0	0
2304439	WORD	wordpools/wasnorm_wordpool_576.txt	LTP336	ltpFR2	6	12	YOLK	1633	n/a	n/a	0	0	0
2306056	START	n/a	LTP336	ltpFR2	6	n/a	n/a	n/a	17	n/a	n/a	n/a	n/a
2307199	DISTRACTOR	n/a	LTP336	ltpFR2	6	12	n/a	n/a	n/a	n/a	0	0	0
2307205	PROB	n/a	LTP336	ltpFR2	6	n/a	n/a	n/a	17	13	3	1	9
2309187	PROB	n/a	LTP336	ltpFR2	6	n/a	n/a	n/a	17	15	9	5	2
2311286	PROB	n/a	LTP336	ltpFR2	6	n/a	n/a	n/a	17	10	4	5	1
2313418	PROB	n/a	LTP336	ltpFR2	6	n/a	n/a	n/a	17	17	8	3	6
2316167	PROB	n/a	LTP336	ltpFR2	6	n/a	n/a	n/a	17	11	6	4	1
2317533	PROB	n/a	LTP336	ltpFR2	6	n/a	n/a	n/a	17	9	2	2	5
2319017	PROB	n/a	LTP336	ltpFR2	6	n/a	n/a	n/a	17	15	4	8	3
2320933	PROB	n/a	LTP336	ltpFR2	6	n/a	n/a	n/a	17	11	3	2	6
2323015	PROB	n/a	LTP336	ltpFR2	6	n/a	n/a	n/a	17	18	9	1	8
2324614	PROB	n/a	LTP336	ltpFR2	6	n/a	n/a	n/a	17	8	3	2	3
2326446	PROB	n/a	LTP336	ltpFR2	6	n/a	n/a	n/a	17	14	7	3	4
2327813	PROB	n/a	LTP336	ltpFR2	6	n/a	n/a	n/a	17	14	5	6	3
2329279	STOP	n/a	LTP336	ltpFR2	6	n/a	n/a	n/a	17	n/a	n/a	n/a	n/a
2331978	REC_START	n/a	LTP336	ltpFR2	6	12	n/a	n/a	n/a	n/a	0	0	0
2332811	REC_WORD	wordpools/wasnorm_wordpool_576.txt	LTP336	ltpFR2	6	12	WIFE	1609	n/a	n/a	0	0	0
2334123	REC_WORD	wordpools/wasnorm_wordpool_576.txt	LTP336	ltpFR2	6	12	CHILD	299	n/a	n/a	0	0	0
2335865	REC_WORD	wordpools/wasnorm_wordpool_576.txt	LTP336	ltpFR2	6	12	EGG	518	n/a	n/a	0	0	0
2337405	REC_WORD	wordpools/wasnorm_wordpool_576.txt	LTP336	ltpFR2	6	12	YOLK	1633	n/a	n/a	0	0	0
2339156	REC_WORD	wordpools/wasnorm_wordpool_576.txt	LTP336	ltpFR2	6	12	SKILLET	1317	n/a	n/a	0	0	0
2340717	REC_WORD	wordpools/wasnorm_wordpool_576.txt	LTP336	ltpFR2	6	12	RIFLE	1192	n/a	n/a	0	0	0
2342215	REC_WORD	wordpools/wasnorm_wordpool_576.txt	LTP336	ltpFR2	6	12	BROOK	177	n/a	n/a	0	0	0
2344058	REC_WORD	wordpools/wasnorm_wordpool_576.txt	LTP336	ltpFR2	6	12	IGLOO	734	n/a	n/a	0	0	0
2345651	REC_WORD	wordpools/wasnorm_wordpool_576.txt	LTP336	ltpFR2	6	12	GAVEL	627	n/a	n/a	0	0	0
2347733	REC_WORD	wordpools/wasnorm_wordpool_576.txt	LTP336	ltpFR2	6	12	BROTHER	179	n/a	n/a	0	0	0
2422419	WORD	wordpools/wasnorm_wordpool_576.txt	LTP336	ltpFR2	6	13	SERVANT	1271	n/a	n/a	0	0	0
2424886	WORD	wordpools/wasnorm_wordpool_576.txt	LTP336	ltpFR2	6	13	SUSPECT	1415	n/a	n/a	0	0	0
2427550	WORD	wordpools/wasnorm_wordpool_576.txt	LTP336	ltpFR2	6	13	JUDGE	761	n/a	n/a	0	0	0
2430365	WORD	wordpools/wasnorm_wordpool_576.txt	LTP336	ltpFR2	6	13	CANYON	235	n/a	n/a	0	0	0
2432965	WORD	wordpools/wasnorm_wordpool_576.txt	LTP336	ltpFR2	6	13	HUSBAND	728	n/a	n/a	0	0	0
2435714	WORD	wordpools/wasnorm_wordpool_576.txt	LTP336	ltpFR2	6	13	BREAST	171	n/a	n/a	0	0	0
2438362	WORD	wordpools/wasnorm_wordpool_576.txt	LTP336	ltpFR2	6	13	SPIDER	1351	n/a	n/a	0	0	0
2441094	WORD	wordpools/wasnorm_wordpool_576.txt	LTP336	ltpFR2	6	13	PACKAGE	997	n/a	n/a	0	0	0
2443677	WORD	wordpools/wasnorm_wordpool_576.txt	LTP336	ltpFR2	6	13	SHELF	1280	n/a	n/a	0	0	0
2446425	WORD	wordpools/wasnorm_wordpool_576.txt	LTP336	ltpFR2	6	13	ATLAS	53	n/a	n/a	0	0	0
2448908	WORD	wordpools/wasnorm_wordpool_576.txt	LTP336	ltpFR2	6	13	BLUEPRINT	142	n/a	n/a	0	0	0
2451439	WORD	wordpools/wasnorm_wordpool_576.txt	LTP336	ltpFR2	6	13	WINDOW	1611	n/a	n/a	0	0	0
2453939	WORD	wordpools/wasnorm_wordpool_576.txt	LTP336	ltpFR2	6	13	ACTOR	5	n/a	n/a	0	0	0
2456537	WORD	wordpools/wasnorm_wordpool_576.txt	LTP336	ltpFR2	6	13	HOSTESS	723	n/a	n/a	0	0	0
2459286	WORD	wordpools/wasnorm_wordpool_576.txt	LTP336	ltpFR2	6	13	CRITIC	410	n/a	n/a	0	0	0
2461969	WORD	wordpools/wasnorm_wordpool_576.txt	LTP336	ltpFR2	6	13	POPCORN	1104	n/a	n/a	0	0	0
2464684	WORD	wordpools/wasnorm_wordpool_576.txt	LTP336	ltpFR2	6	13	FIDDLE	561	n/a	n/a	0	0	0
2467515	WORD	wordpools/wasnorm_wordpool_576.txt	LTP336	ltpFR2	6	13	FRANCE	601	n/a	n/a	0	0	0
2470015	WORD	wordpools/wasnorm_wordpool_576.txt	LTP336	ltpFR2	6	13	GARLIC	624	n/a	n/a	0	0	0
2472681	WORD	wordpools/wasnorm_wordpool_576.txt	LTP336	ltpFR2	6	13	MUFFIN	929	n/a	n/a	0	0	0
2475129	WORD	wordpools/wasnorm_wordpool_576.txt	LTP336	ltpFR2	6	13	IDOL	733	n/a	n/a	0	0	0
2477678	WORD	wordpools/wasnorm_wordpool_576.txt	LTP336	ltpFR2	6	13	SLOPE	1328	n/a	n/a	0	0	0
2480443	WORD	wordpools/wasnorm_wordpool_576.txt	LTP336	ltpFR2	6	13	BUBBLE	183	n/a	n/a	0	0	0
2482959	WORD	wordpools/wasnorm_wordpool_576.txt	LTP336	ltpFR2	6	13	GRILL	661	n/a	n/a	0	0	0
2484574	START	n/a	LTP336	ltpFR2	6	n/a	n/a	n/a	18	n/a	n/a	n/a	n/a
2485669	DISTRACTOR	n/a	LTP336	ltpFR2	6	13	n/a	n/a	n/a	n/a	0	0	0
2485675	PROB	n/a	LTP336	ltpFR2	6	n/a	n/a	n/a	18	15	6	5	4
2488106	PROB	n/a	LTP336	ltpFR2	6	n/a	n/a	n/a	18	18	4	6	8
2489606	PROB	n/a	LTP336	ltpFR2	6	n/a	n/a	n/a	18	16	7	3	3
2491588	PROB	n/a	LTP336	ltpFR2	6	n/a	n/a	n/a	18	17	3	7	7
2493553	PROB	n/a	LTP336	ltpFR2	6	n/a	n/a	n/a	18	17	8	3	6
2495687	PROB	n/a	LTP336	ltpFR2	6	n/a	n/a	n/a	18	19	4	7	8
2498869	PROB	n/a	LTP336	ltpFR2	6	n/a	n/a	n/a	18	14	7	3	4
2501117	PROB	n/a	LTP336	ltpFR2	6	n/a	n/a	n/a	18	15	6	7	3
2504182	PROB	n/a	LTP336	ltpFR2	6	n/a	n/a	n/a	18	14	4	4	6
2506214	PROB	n/a	LTP336	ltpFR2	6	n/a	n/a	n/a	18	18	6	6	6
2508149	STOP	n/a	LTP336	ltpFR2	6	n/a	n/a	n/a	18	n/a	n/a	n/a	n/a
2510430	REC_START	n/a	LTP336	ltpFR2	6	13	n/a	n/a	n/a	n/a	0	0	0
2511333	REC_WORD_VV	wordpools/wasnorm_wordpool_576.txt	LTP336	ltpFR2	6	13	<>	-1	n/a	n/a	0	0	0
2511960	REC_WORD	wordpools/wasnorm_wordpool_576.txt	LTP336	ltpFR2	6	13	JUDGE	761	n/a	n/a	0	0	0
2513267	REC_WORD	wordpools/wasnorm_wordpool_576.txt	LTP336	ltpFR2	6	13	LUMBER	848	n/a	n/a	0	0	0
2517363	REC_WORD	wordpools/wasnorm_wordpool_576.txt	LTP336	ltpFR2	6	13	CANYON	235	n/a	n/a	0	0	0
2600856	DISTRACTOR	n/a	LTP336	ltpFR2	6	14	n/a	n/a	n/a	n/a	0	0	0
2600856	START	n/a	LTP336	ltpFR2	6	n/a	n/a	n/a	19	n/a	n/a	n/a	n/a
2600873	PROB	n/a	LTP336	ltpFR2	6	n/a	n/a	n/a	19	15	1	6	8
2602672	PROB	n/a	LTP336	ltpFR2	6	n/a	n/a	n/a	19	17	5	8	4
2604871	PROB	n/a	LTP336	ltpFR2	6	n/a	n/a	n/a	19	13	2	7	4
2610084	PROB	n/a	LTP336	ltpFR2	6	n/a	n/a	n/a	19	20	9	5	6
2612233	PROB	n/a	LTP336	ltpFR2	6	n/a	n/a	n/a	19	19	4	9	6
2614399	PROB	n/a	LTP336	ltpFR2	6	n/a	n/a	n/a	19	11	3	1	7
2615782	PROB	n/a	LTP336	ltpFR2	6	n/a	n/a	n/a	19	12	3	7	2
2617098	PROB	n/a	LTP336	ltpFR2	6	n/a	n/a	n/a	19	22	7	8	7
2619313	PROB	n/a	LTP336	ltpFR2	6	n/a	n/a	n/a	19	17	3	7	7
2621162	PROB	n/a	LTP336	ltpFR2	6	n/a	n/a	n/a	19	13	3	7	3
2622963	PROB	n/a	LTP336	ltpFR2	6	n/a	n/a	n/a	19	12	7	2	3
2624376	STOP	n/a	LTP336	ltpFR2	6	n/a	n/a	n/a	19	n/a	n/a	n/a	n/a
2625944	WORD	wordpools/wasnorm_wordpool_576.txt	LTP336	ltpFR2	6	14	BUGGY	188	n/a	n/a	0	0	0
2628677	WORD	wordpools/wasnorm_wordpool_576.txt	LTP336	ltpFR2	6	14	LAKE	796	n/a	n/a	0	0	0
2631441	WORD	wordpools/wasnorm_wordpool_576.txt	LTP336	ltpFR2	6	14	TABLE	1426	n/a	n/a	0	0	0
2634123	WORD	wordpools/wasnorm_wordpool_576.txt	LTP336	ltpFR2	6	14	PIGMENT	1066	n/a	n/a	0	0	0
2636656	WORD	wordpools/wasnorm_wordpool_576.txt	LTP336	ltpFR2	6	14	MARKER	870	n/a	n/a	0	0	0
2639471	WORD	wordpools/wasnorm_wordpool_576.txt	LTP336	ltpFR2	6	14	MOTOR	922	n/a	n/a	0	0	0
2642253	WORD	wordpools/wasnorm_wordpool_576.txt	LTP336	ltpFR2	6	14	OUTDOORS	987	n/a	n/a	0	0	0
2644903	WORD	wordpools/wasnorm_wordpool_576.txt	LTP336	ltpFR2	6	14	HEDGE	699	n/a	n/a	0	0	0
2647601	WORD	wordpools/wasnorm_wordpool_576.txt	LTP336	ltpFR2	6	14	AGENT	10	n/a	n/a	0	0	0
2650099	WORD	wordpools/wasnorm_wordpool_576.txt	LTP336	ltpFR2	6	14	COIN	343	n/a	n/a	0	0	0
2652732	WORD	wordpools/wasnorm_wordpool_576.txt	LTP336	ltpFR2	6	14	UNCLE	1536	n/a	n/a	0	0	0
2655547	WORD	wordpools/wasnorm_wordpool_576.txt	LTP336	ltpFR2	6	14	GLASS	639	n/a	n/a	0	0	0
2658063	WORD	wordpools/wasnorm_wordpool_576.txt	LTP336	ltpFR2	6	14	SHOULDER	1294	n/a	n/a	0	0	0
2660645	WORD	wordpools/wasnorm_wordpool_576.txt	LTP336	ltpFR2	6	14	SLUG	1329	n/a	n/a	0	0	0
2663360	WORD	wordpools/wasnorm_wordpool_576.txt	LTP336	ltpFR2	6	14	SADDLE	1221	n/a	n/a	0	0	0
2666026	WORD	wordpools/wasnorm_wordpool_576.txt	LTP336	ltpFR2	6	14	CANAL	226	n/a	n/a	0	0	0
2668474	WORD	wordpools/wasnorm_wordpool_576.txt	LTP336	ltpFR2	6	14	PATIENT	1024	n/a	n/a	0	0	0
2670941	WORD	wordpools/wasnorm_wordpool_576.txt	LTP336	ltpFR2	6	14	NIGHTGOWN	953	n/a	n/a	0	0	0
2673640	WORD	wordpools/wasnorm_wordpool_576.txt	LTP336	ltpFR2	6	14	HEART	697	n/a	n/a	0	0	0
2676304	WORD	wordpools/wasnorm_wordpool_576.txt	LTP336	ltpFR2	6	14	DONOR	485	n/a	n/a	0	0	0
2678771	WORD	wordpools/wasnorm_wordpool_576.txt	LTP336	ltpFR2	6	14	DENTIST	447	n/a	n/a	0	0	0
2681335	WORD	wordpools/wasnorm_wordpool_576.txt	LTP336	ltpFR2	6	14	SCISSORS	1250	n/a	n/a	0	0	0
2684101	WORD	wordpools/wasnorm_wordpool_576.txt	LTP336	ltpFR2	6	14	DUSTPAN	509	n/a	n/a	0	0	0
2686549	WORD	wordpools/wasnorm_wordpool_576.txt	LTP336	ltpFR2	6	14	COMPASS	358	n/a	n/a	0	0	0
2688166	START	n/a	LTP336	ltpFR2	6	n/a	n/a	n/a	20	n/a	n/a	n/a	n/a
2689244	DISTRACTOR	n/a	LTP336	ltpFR2	6	14	n/a	n/a	n/a	n/a	0	0	0
2689248	PROB	n/a	LTP336	ltpFR2	6	n/a	n/a	n/a	20	16	9	2	5
2695245	PROB	n/a	LTP336	ltpFR2	6	n/a	n/a	n/a	20	14	6	8	2
2697361	PROB	n/a	LTP336	ltpFR2	6	n/a	n/a	n/a	20	6	3	1	2
2699344	PROB	n/a	LTP336	ltpFR2	6	n/a	n/a	n/a	20	10	1	2	7
2700644	PROB	n/a	LTP336	ltpFR2	6	n/a	n/a	n/a	20	18	6	5	7
2702426	PROB	n/a	LTP336	ltpFR2	6	n/a	n/a	n/a	20	20	8	8	4
2705141	PROB	n/a	LTP336	ltpFR2	6	n/a	n/a	n/a	20	19	7	9	3
2708540	PROB	n/a	LTP336	ltpFR2	6	n/a	n/a	n/a	20	19	9	6	4
2710700	STOP	n/a	LTP336	ltpFR2	6	n/a	n/a	n/a	20	n/a	n/a	n/a	n/a
2713905	REC_START	n/a	LTP336	ltpFR2	6	14	n/a	n/a	n/a	n/a	0	0	0
2715149	REC_WORD	wordpools/wasnorm_wordpool_576.txt	LTP336	ltpFR2	6	14	PIGGY	-1	n/a	n/a	0	0	0
2716536	REC_WORD	wordpools/wasnorm_wordpool_576.txt	LTP336	ltpFR2	6	14	LAKE	796	n/a	n/a	0	0	0
2718027	REC_WORD	wordpools/wasnorm_wordpool_576.txt	LTP336	ltpFR2	6	14	NIGHTGOWN	953	n/a	n/a	0	0	0
2720181	REC_WORD	wordpools/wasnorm_wordpool_576.txt	LTP336	ltpFR2	6	14	HOUSE	725	n/a	n/a	0	0	0
2723430	REC_WORD	wordpools/wasnorm_wordpool_576.txt	LTP336	ltpFR2	6	14	BUGGY	188	n/a	n/a	0	0	0
2726663	REC_WORD	wordpools/wasnorm_wordpool_576.txt	LTP336	ltpFR2	6	14	TABLE	1426	n/a	n/a	0	0	0
2734111	REC_WORD	wordpools/wasnorm_wordpool_576.txt	LTP336	ltpFR2	6	14	APRON	35	n/a	n/a	0	0	0
2745119	REC_WORD_VV	wordpools/wasnorm_wordpool_576.txt	LTP336	ltpFR2	6	14	<>	-1	n/a	n/a	0	0	0
2804363	WORD	wordpools/wasnorm_wordpool_576.txt	LTP336	ltpFR2	6	15	PASTA	1021	n/a	n/a	0	0	0
2807162	WORD	wordpools/wasnorm_wordpool_576.txt	LTP336	ltpFR2	6	15	SCALLOP	1242	n/a	n/a	0	0	0
2809978	WORD	wordpools/wasnorm_wordpool_576.txt	LTP336	ltpFR2	6	15	SUPPER	1411	n/a	n/a	0	0	0
2812660	WORD	wordpools/wasnorm_wordpool_576.txt	LTP336	ltpFR2	6	15	BEEF	113	n/a	n/a	0	0	0
2815291	WORD	wordpools/wasnorm_wordpool_576.txt	LTP336	ltpFR2	6	15	CATTLE	261	n/a	n/a	0	0	0
2818123	WORD	wordpools/wasnorm_wordpool_576.txt	LTP336	ltpFR2	6	15	BLENDER	136	n/a	n/a	0	0	0
2820906	WORD	wordpools/wasnorm_wordpool_576.txt	LTP336	ltpFR2	6	15	SHIRT	1287	n/a	n/a	0	0	0
2823587	WORD	wordpools/wasnorm_wordpool_576.txt	LTP336	ltpFR2	6	15	LIPSTICK	829	n/a	n/a	0	0	0
2826037	WORD	wordpools/wasnorm_wordpool_576.txt	LTP336	ltpFR2	6	15	FIREPLACE	570	n/a	n/a	0	0	0
2828686	WORD	wordpools/wasnorm_wordpool_576.txt	LTP336	ltpFR2	6	15	CASKET	255	n/a	n/a	0	0	0
2831267	WORD	wordpools/wasnorm_wordpool_576.txt	LTP336	ltpFR2	6	15	POSTAGE	1113	n/a	n/a	0	0	0
2834083	WORD	wordpools/wasnorm_wordpool_576.txt	LTP336	ltpFR2	6	15	QUEEN	1149	n/a	n/a	0	0	0
2836716	WORD	wordpools/wasnorm_wordpool_576.txt	LTP336	ltpFR2	6	15	PLAZA	1088	n/a	n/a	0	0	0
2839264	WORD	wordpools/wasnorm_wordpool_576.txt	LTP336	ltpFR2	6	15	MARKET	871	n/a	n/a	0	0	0
2841863	WORD	wordpools/wasnorm_wordpool_576.txt	LTP336	ltpFR2	6	15	SODA	1341	n/a	n/a	0	0	0
2844545	WORD	wordpools/wasnorm_wordpool_576.txt	LTP336	ltpFR2	6	15	SCOTCH	1251	n/a	n/a	0	0	0
2847310	WORD	wordpools/wasnorm_wordpool_576.txt	LTP336	ltpFR2	6	15	ROD	1203	n/a	n/a	0	0	0
2849793	WORD	wordpools/wasnorm_wordpool_576.txt	LTP336	ltpFR2	6	15	PRIMATE	1123	n/a	n/a	0	0	0
2852291	WORD	wordpools/wasnorm_wordpool_576.txt	LTP336	ltpFR2	6	15	POET	1095	n/a	n/a	0	0	0
2854991	WORD	wordpools/wasnorm_wordpool_576.txt	LTP336	ltpFR2	6	15	CURTAIN	427	n/a	n/a	0	0	0
2857690	WORD	wordpools/wasnorm_wordpool_576.txt	LTP336	ltpFR2	6	15	TOMBSTONE	1478	n/a	n/a	0	0	0
2860271	WORD	wordpools/wasnorm_wordpool_576.txt	LTP336	ltpFR2	6	15	HOOK	715	n/a	n/a	0	0	0
2862887	WORD	wordpools/wasnorm_wordpool_576.txt	LTP336	ltpFR2	6	15	ULCER	1533	n/a	n/a	0	0	0
2865686	WORD	wordpools/wasnorm_wordpool_576.txt	LTP336	ltpFR2	6	15	MUSTARD	935	n/a	n/a	0	0	0
2867301	START	n/a	LTP336	ltpFR2	6	n/a	n/a	n/a	21	n/a	n/a	n/a	n/a
2868286	DISTRACTOR	n/a	LTP336	ltpFR2	6	15	n/a	n/a	n/a	n/a	0	0	0
2868300	PROB	n/a	LTP336	ltpFR2	6	n/a	n/a	n/a	21	8	1	5	2
2870416	PROB	n/a	LTP336	ltpFR2	6	n/a	n/a	n/a	21	20	6	8	6
2872432	PROB	n/a	LTP336	ltpFR2	6	n/a	n/a	n/a	21	16	9	2	5
2874514	PROB	n/a	LTP336	ltpFR2	6	n/a	n/a	n/a	21	16	6	8	2
2876714	PROB	n/a	LTP336	ltpFR2	6	n/a	n/a	n/a	21	12	8	2	2
2880195	PROB	n/a	LTP336	ltpFR2	6	n/a	n/a	n/a	21	18	5	8	5
2882427	PROB	n/a	LTP336	ltpFR2	6	n/a	n/a	n/a	21	11	5	3	3
2884560	PROB	n/a	LTP336	ltpFR2	6	n/a	n/a	n/a	21	17	8	2	7
2886060	PROB	n/a	LTP336	ltpFR2	6	n/a	n/a	n/a	21	13	3	2	8
2887859	PROB	n/a	LTP336	ltpFR2	6	n/a	n/a	n/a	21	15	5	7	3
2889457	PROB	n/a	LTP336	ltpFR2	6	n/a	n/a	n/a	21	8	1	6	1
2890722	STOP	n/a	LTP336	ltpFR2	6	n/a	n/a	n/a	21	n/a	n/a	n/a	n/a
2893156	REC_START	n/a	LTP336	ltpFR2	6	15	n/a	n/a	n/a	n/a	0	0	0
2894117	REC_WORD	wordpools/wasnorm_wordpool_576.txt	LTP336	ltpFR2	6	15	ROD	1203	n/a	n/a	0	0	0
2895448	REC_WORD	wordpools/wasnorm_wordpool_576.txt	LTP336	ltpFR2	6	15	PRIMATE	1123	n/a	n/a	0	0	0
2896864	REC_WORD	wordpools/wasnorm_wordpool_576.txt	LTP336	ltpFR2	6	15	PLAYER	-1	n/a	n/a	0	0	0
2898626	REC_WORD	wordpools/wasnorm_wordpool_576.txt	LTP336	ltpFR2	6	15	MUSTARD	935	n/a	n/a	0	0	0
2900866	REC_WORD	wordpools/wasnorm_wordpool_576.txt	LTP336	ltpFR2	6	15	SUPPER	1411	n/a	n/a	0	0	0
2902853	REC_WORD	wordpools/wasnorm_wordpool_576.txt	LTP336	ltpFR2	6	15	PASTA	1021	n/a	n/a	0	0	0
2904398	REC_WORD	wordpools/wasnorm_wordpool_576.txt	LTP336	ltpFR2	6	15	FIREPLACE	570	n/a	n/a	0	0	0
2929817	REC_WORD_VV	wordpools/wasnorm_wordpool_576.txt	LTP336	ltpFR2	6	15	<>	-1	n/a	n/a	0	0	0
2983599	DISTRACTOR	n/a	LTP336	ltpFR2	6	16	n/a	n/a	n/a	n/a	0	0	0
2983599	START	n/a	LTP336	ltpFR2	6	n/a	n/a	n/a	22	n/a	n/a	n/a	n/a
2983616	PROB	n/a	LTP336	ltpFR2	6	n/a	n/a	n/a	22	14	1	5	8
2986447	PROB	n/a	LTP336	ltpFR2	6	n/a	n/a	n/a	22	17	7	9	1
2987981	PROB	n/a	LTP336	ltpFR2	6	n/a	n/a	n/a	22	17	4	5	8
2990545	PROB	n/a	LTP336	ltpFR2	6	n/a	n/a	n/a	22	14	1	8	5
2992062	PROB	n/a	LTP336	ltpFR2	6	n/a	n/a	n/a	22	16	4	5	7
2993861	PROB	n/a	LTP336	ltpFR2	6	n/a	n/a	n/a	22	18	8	8	2
2996476	PROB	n/a	LTP336	ltpFR2	6	n/a	n/a	n/a	22	7	4	1	2
2998158	PROB	n/a	LTP336	ltpFR2	6	n/a	n/a	n/a	22	19	9	6	4
3000324	PROB	n/a	LTP336	ltpFR2	6	n/a	n/a	n/a	22	18	7	2	9
3003356	PROB	n/a	LTP336	ltpFR2	6	n/a	n/a	n/a	22	12	5	6	1
3005422	PROB	n/a	LTP336	ltpFR2	6	n/a	n/a	n/a	22	15	3	7	5
3006989	STOP	n/a	LTP336	ltpFR2	6	n/a	n/a	n/a	22	n/a	n/a	n/a	n/a
3008537	WORD	wordpools/wasnorm_wordpool_576.txt	LTP336	ltpFR2	6	16	SEAGULL	1261	n/a	n/a	0	0	0
3011336	WORD	wordpools/wasnorm_wordpool_576.txt	LTP336	ltpFR2	6	16	SURVEY	1414	n/a	n/a	0	0	0
3013969	WORD	wordpools/wasnorm_wordpool_576.txt	LTP336	ltpFR2	6	16	VIKING	1565	n/a	n/a	0	0	0
3016433	WORD	wordpools/wasnorm_wordpool_576.txt	LTP336	ltpFR2	6	16	LASER	801	n/a	n/a	0	0	0
3018933	WORD	wordpools/wasnorm_wordpool_576.txt	LTP336	ltpFR2	6	16	TUNNEL	1519	n/a	n/a	0	0	0
3021715	WORD	wordpools/wasnorm_wordpool_576.txt	LTP336	ltpFR2	6	16	LEG	809	n/a	n/a	0	0	0
3024430	WORD	wordpools/wasnorm_wordpool_576.txt	LTP336	ltpFR2	6	16	DRILL	497	n/a	n/a	0	0	0
3026963	WORD	wordpools/wasnorm_wordpool_576.txt	LTP336	ltpFR2	6	16	THRONE	1461	n/a	n/a	0	0	0
3029762	WORD	wordpools/wasnorm_wordpool_576.txt	LTP336	ltpFR2	6	16	LION	827	n/a	n/a	0	0	0
3032559	WORD	wordpools/wasnorm_wordpool_576.txt	LTP336	ltpFR2	6	16	ARMY	39	n/a	n/a	0	0	0
3035075	WORD	wordpools/wasnorm_wordpool_576.txt	LTP336	ltpFR2	6	16	BODY	145	n/a	n/a	0	0	0
3037557	WORD	wordpools/wasnorm_wordpool_576.txt	LTP336	ltpFR2	6	16	CITRUS	313	n/a	n/a	0	0	0
3040189	WORD	wordpools/wasnorm_wordpool_576.txt	LTP336	ltpFR2	6	16	CAMEL	223	n/a	n/a	0	0	0
3042972	WORD	wordpools/wasnorm_wordpool_576.txt	LTP336	ltpFR2	6	16	CIGAR	308	n/a	n/a	0	0	0
3045671	WORD	wordpools/wasnorm_wordpool_576.txt	LTP336	ltpFR2	6	16	MESSAGE	888	n/a	n/a	0	0	0
3048386	WORD	wordpools/wasnorm_wordpool_576.txt	LTP336	ltpFR2	6	16	MAILBOX	857	n/a	n/a	0	0	0
3050835	WORD	wordpools/wasnorm_wordpool_576.txt	LTP336	ltpFR2	6	16	ANKLE	24	n/a	n/a	0	0	0
3053350	WORD	wordpools/wasnorm_wordpool_576.txt	LTP336	ltpFR2	6	16	ROCKET	1202	n/a	n/a	0	0	0
3055783	WORD	wordpools/wasnorm_wordpool_576.txt	LTP336	ltpFR2	6	16	HAWK	692	n/a	n/a	0	0	0
3058431	WORD	wordpools/wasnorm_wordpool_576.txt	LTP336	ltpFR2	6	16	RADISH	1158	n/a	n/a	0	0	0
3061064	WORD	wordpools/wasnorm_wordpool_576.txt	LTP336	ltpFR2	6	16	HERO	706	n/a	n/a	0	0	0
3063696	WORD	wordpools/wasnorm_wordpool_576.txt	LTP336	ltpFR2	6	16	SIDEWALK	1303	n/a	n/a	0	0	0
3066294	WORD	wordpools/wasnorm_wordpool_576.txt	LTP336	ltpFR2	6	16	CLIMBER	323	n/a	n/a	0	0	0
3068911	WORD	wordpools/wasnorm_wordpool_576.txt	LTP336	ltpFR2	6	16	TORTOISE	1486	n/a	n/a	0	0	0
3070526	START	n/a	LTP336	ltpFR2	6	n/a	n/a	n/a	23	n/a	n/a	n/a	n/a
3071388	DISTRACTOR	n/a	LTP336	ltpFR2	6	16	n/a	n/a	n/a	n/a	0	0	0
3071392	PROB	n/a	LTP336	ltpFR2	6	n/a	n/a	n/a	23	21	5	8	8
3074625	PROB	n/a	LTP336	ltpFR2	6	n/a	n/a	n/a	23	10	2	4	4
3076657	PROB	n/a	LTP336	ltpFR2	6	n/a	n/a	n/a	23	22	8	5	9
3079939	PROB	n/a	LTP336	ltpFR2	6	n/a	n/a	n/a	23	10	3	5	2
3081921	PROB	n/a	LTP336	ltpFR2	6	n/a	n/a	n/a	23	9	3	2	4
3084787	PROB	n/a	LTP336	ltpFR2	6	n/a	n/a	n/a	23	9	1	2	6
3086318	PROB	n/a	LTP336	ltpFR2	6	n/a	n/a	n/a	23	15	8	6	1
3088735	PROB	n/a	LTP336	ltpFR2	6	n/a	n/a	n/a	23	26	8	9	9
3094526	STOP	n/a	LTP336	ltpFR2	6	n/a	n/a	n/a	23	n/a	n/a	n/a	n/a
3096464	REC_START	n/a	LTP336	ltpFR2	6	16	n/a	n/a	n/a	n/a	0	0	0
3097688	REC_WORD	wordpools/wasnorm_wordpool_576.txt	LTP336	ltpFR2	6	16	RADISH	1158	n/a	n/a	0	0	0
3098723	REC_WORD_VV	wordpools/wasnorm_wordpool_576.txt	LTP336	ltpFR2	6	16	<>	-1	n/a	n/a	0	0	0
3099527	REC_WORD	wordpools/wasnorm_wordpool_576.txt	LTP336	ltpFR2	6	16	SIDEWALK	1303	n/a	n/a	0	0	0
3100917	REC_WORD	wordpools/wasnorm_wordpool_576.txt	LTP336	ltpFR2	6	16	CLIMBER	323	n/a	n/a	0	0	0
3102564	REC_WORD	wordpools/wasnorm_wordpool_576.txt	LTP336	ltpFR2	6	16	HERO	706	n/a	n/a	0	0	0
3104170	REC_WORD	wordpools/wasnorm_wordpool_576.txt	LTP336	ltpFR2	6	16	VIKING	1565	n/a	n/a	0	0	0
3106110	REC_WORD	wordpools/wasnorm_wordpool_576.txt	LTP336	ltpFR2	6	16	CIGAR	308	n/a	n/a	0	0	0
3107791	REC_WORD	wordpools/wasnorm_wordpool_576.txt	LTP336	ltpFR2	6	16	CAPSULE	-1	n/a	n/a	0	0	0
3172997	REST_REWET	n/a	LTP336	ltpFR2	6	16	n/a	n/a	n/a	n/a	0	0	0
3341987	WORD	wordpools/wasnorm_wordpool_576.txt	LTP336	ltpFR2	6	17	CRAYON	401	n/a	n/a	0	0	0
3344736	WORD	wordpools/wasnorm_wordpool_576.txt	LTP336	ltpFR2	6	17	COBRA	336	n/a	n/a	0	0	0
3347184	WORD	wordpools/wasnorm_wordpool_576.txt	LTP336	ltpFR2	6	17	ZIPPER	1636	n/a	n/a	0	0	0
3349983	WORD	wordpools/wasnorm_wordpool_576.txt	LTP336	ltpFR2	6	17	MOP	916	n/a	n/a	0	0	0
3352415	WORD	wordpools/wasnorm_wordpool_576.txt	LTP336	ltpFR2	6	17	NAPKIN	937	n/a	n/a	0	0	0
3355180	WORD	wordpools/wasnorm_wordpool_576.txt	LTP336	ltpFR2	6	17	DENIM	446	n/a	n/a	0	0	0
3357730	WORD	wordpools/wasnorm_wordpool_576.txt	LTP336	ltpFR2	6	17	TREAT	1501	n/a	n/a	0	0	0
3360494	WORD	wordpools/wasnorm_wordpool_576.txt	LTP336	ltpFR2	6	17	AUTHOR	61	n/a	n/a	0	0	0
3362928	WORD	wordpools/wasnorm_wordpool_576.txt	LTP336	ltpFR2	6	17	MONSTER	912	n/a	n/a	0	0	0
3365660	WORD	wordpools/wasnorm_wordpool_576.txt	LTP336	ltpFR2	6	17	KNAPSACK	783	n/a	n/a	0	0	0
3368324	WORD	wordpools/wasnorm_wordpool_576.txt	LTP336	ltpFR2	6	17	KLEENEX	782	n/a	n/a	0	0	0
3370924	WORD	wordpools/wasnorm_wordpool_576.txt	LTP336	ltpFR2	6	17	TURNIP	1521	n/a	n/a	0	0	0
3373706	WORD	wordpools/wasnorm_wordpool_576.txt	LTP336	ltpFR2	6	17	GARDEN	623	n/a	n/a	0	0	0
3376387	WORD	wordpools/wasnorm_wordpool_576.txt	LTP336	ltpFR2	6	17	SHARK	1275	n/a	n/a	0	0	0
3378970	WORD	wordpools/wasnorm_wordpool_576.txt	LTP336	ltpFR2	6	17	FLESH	579	n/a	n/a	0	0	0
3381752	WORD	wordpools/wasnorm_wordpool_576.txt	LTP336	ltpFR2	6	17	DAUGHTER	442	n/a	n/a	0	0	0
3384234	WORD	wordpools/wasnorm_wordpool_576.txt	LTP336	ltpFR2	6	17	TILE	1468	n/a	n/a	0	0	0
3386883	WORD	wordpools/wasnorm_wordpool_576.txt	LTP336	ltpFR2	6	17	GAZELLE	628	n/a	n/a	0	0	0
3389564	WORD	wordpools/wasnorm_wordpool_576.txt	LTP336	ltpFR2	6	17	MACHINE	852	n/a	n/a	0	0	0
3392097	WORD	wordpools/wasnorm_wordpool_576.txt	LTP336	ltpFR2	6	17	HOUND	724	n/a	n/a	0	0	0
3394896	WORD	wordpools/wasnorm_wordpool_576.txt	LTP336	ltpFR2	6	17	CATCHER	258	n/a	n/a	0	0	0
3397612	WORD	wordpools/wasnorm_wordpool_576.txt	LTP336	ltpFR2	6	17	DIVER	476	n/a	n/a	0	0	0
3400143	WORD	wordpools/wasnorm_wordpool_576.txt	LTP336	ltpFR2	6	17	CLAM	315	n/a	n/a	0	0	0
3402610	WORD	wordpools/wasnorm_wordpool_576.txt	LTP336	ltpFR2	6	17	FLASHLIGHT	575	n/a	n/a	0	0	0
3404225	START	n/a	LTP336	ltpFR2	6	n/a	n/a	n/a	24	n/a	n/a	n/a	n/a
3405291	DISTRACTOR	n/a	LTP336	ltpFR2	6	17	n/a	n/a	n/a	n/a	0	0	0
3405307	PROB	n/a	LTP336	ltpFR2	6	n/a	n/a	n/a	24	12	2	4	6
3407624	PROB	n/a	LTP336	ltpFR2	6	n/a	n/a	n/a	24	11	2	3	6
3409472	PROB	n/a	LTP336	ltpFR2	6	n/a	n/a	n/a	24	14	5	6	3
3411405	PROB	n/a	LTP336	ltpFR2	6	n/a	n/a	n/a	24	13	9	1	3
3412955	PROB	n/a	LTP336	ltpFR2	6	n/a	n/a	n/a	24	14	3	4	7
3414687	PROB	n/a	LTP336	ltpFR2	6	n/a	n/a	n/a	24	5	1	3	1
3416152	PROB	n/a	LTP336	ltpFR2	6	n/a	n/a	n/a	24	15	9	3	3
3418636	PROB	n/a	LTP336	ltpFR2	6	n/a	n/a	n/a	24	10	2	3	5
3420534	PROB	n/a	LTP336	ltpFR2	6	n/a	n/a	n/a	24	18	3	8	7
3422500	PROB	n/a	LTP336	ltpFR2	6	n/a	n/a	n/a	24	14	3	5	6
3424465	PROB	n/a	LTP336	ltpFR2	6	n/a	n/a	n/a	24	12	8	3	1
3425982	PROB	n/a	LTP336	ltpFR2	6	n/a	n/a	n/a	24	12	1	5	6
3427409	STOP	n/a	LTP336	ltpFR2	6	n/a	n/a	n/a	24	n/a	n/a	n/a	n/a
3430014	REC_START	n/a	LTP336	ltpFR2	6	17	n/a	n/a	n/a	n/a	0	0	0
3432121	REC_WORD	wordpools/wasnorm_wordpool_576.txt	LTP336	ltpFR2	6	17	CRAYON	401	n/a	n/a	0	0	0
3433863	REC_WORD	wordpools/wasnorm_wordpool_576.txt	LTP336	ltpFR2	6	17	COBRA	336	n/a	n/a	0	0	0
3434925	REC_WORD_VV	wordpools/wasnorm_wordpool_576.txt	LTP336	ltpFR2	6	17	<>	-1	n/a	n/a	0	0	0
3438730	REC_WORD	wordpools/wasnorm_wordpool_576.txt	LTP336	ltpFR2	6	17	MOP	916	n/a	n/a	0	0	0
3442273	REC_WORD	wordpools/wasnorm_wordpool_576.txt	LTP336	ltpFR2	6	17	KNAPSACK	783	n/a	n/a	0	0	0
3476028	REC_WORD_VV	wordpools/wasnorm_wordpool_576.txt	LTP336	ltpFR2	6	17	<>	-1	n/a	n/a	0	0	0
3477998	REC_WORD_VV	wordpools/wasnorm_wordpool_576.txt	LTP336	ltpFR2	6	17	<>	-1	n/a	n/a	0	0	0
3520472	WORD	wordpools/wasnorm_wordpool_576.txt	LTP336	ltpFR2	6	18	VALLEY	1545	n/a	n/a	0	0	0
3523171	WORD	wordpools/wasnorm_wordpool_576.txt	LTP336	ltpFR2	6	18	BIKE	125	n/a	n/a	0	0	0
3525771	WORD	wordpools/wasnorm_wordpool_576.txt	LTP336	ltpFR2	6	18	RUST	1219	n/a	n/a	0	0	0
3528235	WORD	wordpools/wasnorm_wordpool_576.txt	LTP336	ltpFR2	6	18	BACON	67	n/a	n/a	0	0	0
3530968	WORD	wordpools/wasnorm_wordpool_576.txt	LTP336	ltpFR2	6	18	SAUSAGE	1238	n/a	n/a	0	0	0
3533700	WORD	wordpools/wasnorm_wordpool_576.txt	LTP336	ltpFR2	6	18	WAITER	1580	n/a	n/a	0	0	0
3536248	WORD	wordpools/wasnorm_wordpool_576.txt	LTP336	ltpFR2	6	18	LIGHTNING	820	n/a	n/a	0	0	0
3538681	WORD	wordpools/wasnorm_wordpool_576.txt	LTP336	ltpFR2	6	18	PEPPER	1047	n/a	n/a	0	0	0
3541412	WORD	wordpools/wasnorm_wordpool_576.txt	LTP336	ltpFR2	6	18	WRIST	1626	n/a	n/a	0	0	0
3544045	WORD	wordpools/wasnorm_wordpool_576.txt	LTP336	ltpFR2	6	18	CASHEW	253	n/a	n/a	0	0	0
3546828	WORD	wordpools/wasnorm_wordpool_576.txt	LTP336	ltpFR2	6	18	PILOT	1070	n/a	n/a	0	0	0
3549593	WORD	wordpools/wasnorm_wordpool_576.txt	LTP336	ltpFR2	6	18	STALLION	1369	n/a	n/a	0	0	0
3552207	WORD	wordpools/wasnorm_wordpool_576.txt	LTP336	ltpFR2	6	18	FRAGRANCE	599	n/a	n/a	0	0	0
3554824	WORD	wordpools/wasnorm_wordpool_576.txt	LTP336	ltpFR2	6	18	POWDER	1117	n/a	n/a	0	0	0
3557623	WORD	wordpools/wasnorm_wordpool_576.txt	LTP336	ltpFR2	6	18	INMATE	738	n/a	n/a	0	0	0
3560387	WORD	wordpools/wasnorm_wordpool_576.txt	LTP336	ltpFR2	6	18	BRAKE	166	n/a	n/a	0	0	0
3563136	WORD	wordpools/wasnorm_wordpool_576.txt	LTP336	ltpFR2	6	18	BLOCKADE	137	n/a	n/a	0	0	0
3565686	WORD	wordpools/wasnorm_wordpool_576.txt	LTP336	ltpFR2	6	18	SLIDE	1326	n/a	n/a	0	0	0
3568500	WORD	wordpools/wasnorm_wordpool_576.txt	LTP336	ltpFR2	6	18	FLOWER	584	n/a	n/a	0	0	0
3571182	WORD	wordpools/wasnorm_wordpool_576.txt	LTP336	ltpFR2	6	18	PARSLEY	1016	n/a	n/a	0	0	0
3573865	WORD	wordpools/wasnorm_wordpool_576.txt	LTP336	ltpFR2	6	18	CORAL	378	n/a	n/a	0	0	0
3576513	WORD	wordpools/wasnorm_wordpool_576.txt	LTP336	ltpFR2	6	18	CLOTHES	327	n/a	n/a	0	0	0
3579295	WORD	wordpools/wasnorm_wordpool_576.txt	LTP336	ltpFR2	6	18	PAPER	1011	n/a	n/a	0	0	0
3581978	WORD	wordpools/wasnorm_wordpool_576.txt	LTP336	ltpFR2	6	18	CAPTIVE	240	n/a	n/a	0	0	0
3583594	START	n/a	LTP336	ltpFR2	6	n/a	n/a	n/a	25	n/a	n/a	n/a	n/a
3584413	DISTRACTOR	n/a	LTP336	ltpFR2	6	18	n/a	n/a	n/a	n/a	0	0	0
3584426	PROB	n/a	LTP336	ltpFR2	6	n/a	n/a	n/a	25	17	8	3	6
3588508	PROB	n/a	LTP336	ltpFR2	6	n/a	n/a	n/a	25	17	4	9	4
3591107	PROB	n/a	LTP336	ltpFR2	6	n/a	n/a	n/a	25	8	5	1	2
3592573	PROB	n/a	LTP336	ltpFR2	6	n/a	n/a	n/a	25	24	9	6	9
3595138	PROB	n/a	LTP336	ltpFR2	6	n/a	n/a	n/a	25	10	3	5	2
3596755	PROB	n/a	LTP336	ltpFR2	6	n/a	n/a	n/a	25	17	6	4	7
3598320	PROB	n/a	LTP336	ltpFR2	6	n/a	n/a	n/a	25	13	8	4	1
3600352	PROB	n/a	LTP336	ltpFR2	6	n/a	n/a	n/a	25	19	8	8	3
3601953	PROB	n/a	LTP336	ltpFR2	6	n/a	n/a	n/a	25	13	5	7	1
3604500	PROB	n/a	LTP336	ltpFR2	6	n/a	n/a	n/a	25	13	1	6	6
3606319	STOP	n/a	LTP336	ltpFR2	6	n/a	n/a	n/a	25	n/a	n/a	n/a	n/a
3609432	REC_START	n/a	LTP336	ltpFR2	6	18	n/a	n/a	n/a	n/a	0	0	0
3610406	REC_WORD	wordpools/wasnorm_wordpool_576.txt	LTP336	ltpFR2	6	18	BLOCKADE	137	n/a	n/a	0	0	0
3611708	REC_WORD_VV	wordpools/wasnorm_wordpool_576.txt	LTP336	ltpFR2	6	18	<>	-1	n/a	n/a	0	0	0
3612492	REC_WORD	wordpools/wasnorm_wordpool_576.txt	LTP336	ltpFR2	6	18	FLOWER	584	n/a	n/a	0	0	0
3614361	REC_WORD	wordpools/wasnorm_wordpool_576.txt	LTP336	ltpFR2	6	18	PARSLEY	1016	n/a	n/a	0	0	0
3699858	DISTRACTOR	n/a	LTP336	ltpFR2	6	19	n/a	n/a	n/a	n/a	0	0	0
3699858	START	n/a	LTP336	ltpFR2	6	n/a	n/a	n/a	26	n/a	n/a	n/a	n/a
3699875	PROB	n/a	LTP336	ltpFR2	6	n/a	n/a	n/a	26	19	2	9	8
3703289	PROB	n/a	LTP336	ltpFR2	6	n/a	n/a	n/a	26	9	2	5	2
3705288	PROB	n/a	LTP336	ltpFR2	6	n/a	n/a	n/a	26	23	6	8	9
3709704	PROB	n/a	LTP336	ltpFR2	6	n/a	n/a	n/a	26	20	7	9	4
3712053	PROB	n/a	LTP336	ltpFR2	6	n/a	n/a	n/a	26	16	2	9	5
3714635	PROB	n/a	LTP336	ltpFR2	6	n/a	n/a	n/a	26	13	6	5	2
3716233	PROB	n/a	LTP336	ltpFR2	6	n/a	n/a	n/a	26	13	5	5	3
3717617	PROB	n/a	LTP336	ltpFR2	6	n/a	n/a	n/a	26	8	3	2	3
3719983	PROB	n/a	LTP336	ltpFR2	6	n/a	n/a	n/a	26	16	6	6	4
3722081	PROB	n/a	LTP336	ltpFR2	6	n/a	n/a	n/a	26	7	3	3	1
3723555	STOP	n/a	LTP336	ltpFR2	6	n/a	n/a	n/a	26	n/a	n/a	n/a	n/a
3724780	WORD	wordpools/wasnorm_wordpool_576.txt	LTP336	ltpFR2	6	19	VAGRANT	1544	n/a	n/a	0	0	0
3727295	WORD	wordpools/wasnorm_wordpool_576.txt	LTP336	ltpFR2	6	19	KITCHEN	778	n/a	n/a	0	0	0
3730077	WORD	wordpools/wasnorm_wordpool_576.txt	LTP336	ltpFR2	6	19	PLATE	1086	n/a	n/a	0	0	0
3732593	WORD	wordpools/wasnorm_wordpool_576.txt	LTP336	ltpFR2	6	19	LACE	792	n/a	n/a	0	0	0
3735391	WORD	wordpools/wasnorm_wordpool_576.txt	LTP336	ltpFR2	6	19	MARS	873	n/a	n/a	0	0	0
3737874	WORD	wordpools/wasnorm_wordpool_576.txt	LTP336	ltpFR2	6	19	TERMITE	1451	n/a	n/a	0	0	0
3740539	WORD	wordpools/wasnorm_wordpool_576.txt	LTP336	ltpFR2	6	19	DOLPHIN	483	n/a	n/a	0	0	0
3743088	WORD	wordpools/wasnorm_wordpool_576.txt	LTP336	ltpFR2	6	19	PLAID	1080	n/a	n/a	0	0	0
3745821	WORD	wordpools/wasnorm_wordpool_576.txt	LTP336	ltpFR2	6	19	PIANO	1057	n/a	n/a	0	0	0
3748485	WORD	wordpools/wasnorm_wordpool_576.txt	LTP336	ltpFR2	6	19	VENUS	1557	n/a	n/a	0	0	0
3750985	WORD	wordpools/wasnorm_wordpool_576.txt	LTP336	ltpFR2	6	19	FARMER	553	n/a	n/a	0	0	0
3753500	WORD	wordpools/wasnorm_wordpool_576.txt	LTP336	ltpFR2	6	19	BRACES	164	n/a	n/a	0	0	0
3755983	WORD	wordpools/wasnorm_wordpool_576.txt	LTP336	ltpFR2	6	19	PASTRY	1022	n/a	n/a	0	0	0
3758464	WORD	wordpools/wasnorm_wordpool_576.txt	LTP336	ltpFR2	6	19	COOK	372	n/a	n/a	0	0	0
3760931	WORD	wordpools/wasnorm_wordpool_576.txt	LTP336	ltpFR2	6	19	STOVE	1388	n/a	n/a	0	0	0
3763696	WORD	wordpools/wasnorm_wordpool_576.txt	LTP336	ltpFR2	6	19	CASHIER	254	n/a	n/a	0	0	0
3766177	WORD	wordpools/wasnorm_wordpool_576.txt	LTP336	ltpFR2	6	19	NOTEBOOK	959	n/a	n/a	0	0	0
3768910	WORD	wordpools/wasnorm_wordpool_576.txt	LTP336	ltpFR2	6	19	CANDY	230	n/a	n/a	0	0	0
3771558	WORD	wordpools/wasnorm_wordpool_576.txt	LTP336	ltpFR2	6	19	ICING	732	n/a	n/a	0	0	0
3774074	WORD	wordpools/wasnorm_wordpool_576.txt	LTP336	ltpFR2	6	19	JOURNAL	760	n/a	n/a	0	0	0
3776607	WORD	wordpools/wasnorm_wordpool_576.txt	LTP336	ltpFR2	6	19	PECAN	1036	n/a	n/a	0	0	0
3779121	WORD	wordpools/wasnorm_wordpool_576.txt	LTP336	ltpFR2	6	19	ROOSTER	1209	n/a	n/a	0	0	0
3781921	WORD	wordpools/wasnorm_wordpool_576.txt	LTP336	ltpFR2	6	19	EAGLE	512	n/a	n/a	0	0	0
3784469	WORD	wordpools/wasnorm_wordpool_576.txt	LTP336	ltpFR2	6	19	SHORTS	1293	n/a	n/a	0	0	0
3786085	START	n/a	LTP336	ltpFR2	6	n/a	n/a	n/a	27	n/a	n/a	n/a	n/a
3786929	DISTRACTOR	n/a	LTP336	ltpFR2	6	19	n/a	n/a	n/a	n/a	0	0	0
3786936	PROB	n/a	LTP336	ltpFR2	6	n/a	n/a	n/a	27	14	6	3	5
3790834	PROB	n/a	LTP336	ltpFR2	6	n/a	n/a	n/a	27	17	2	9	6
3793248	PROB	n/a	LTP336	ltpFR2	6	n/a	n/a	n/a	27	11	2	8	1
3794564	PROB	n/a	LTP336	ltpFR2	6	n/a	n/a	n/a	27	16	5	3	8
3796180	PROB	n/a	LTP336	ltpFR2	6	n/a	n/a	n/a	27	13	6	3	4
3797797	PROB	n/a	LTP336	ltpFR2	6	n/a	n/a	n/a	27	15	6	8	1
3799663	PROB	n/a	LTP336	ltpFR2	6	n/a	n/a	n/a	27	13	1	6	6
3801261	PROB	n/a	LTP336	ltpFR2	6	n/a	n/a	n/a	27	22	9	9	4
3802728	PROB	n/a	LTP336	ltpFR2	6	n/a	n/a	n/a	27	16	2	6	8
3804543	PROB	n/a	LTP336	ltpFR2	6	n/a	n/a	n/a	27	16	6	9	1
3806242	PROB	n/a	LTP336	ltpFR2	6	n/a	n/a	n/a	27	13	5	5	3
3808059	PROB	n/a	LTP336	ltpFR2	6	n/a	n/a	n/a	27	14	6	7	1
3809631	STOP	n/a	LTP336	ltpFR2	6	n/a	n/a	n/a	27	n/a	n/a	n/a	n/a
3811858	REC_START	n/a	LTP336	ltpFR2	6	19	n/a	n/a	n/a	n/a	0	0	0
3813441	REC_WORD	wordpools/wasnorm_wordpool_576.txt	LTP336	ltpFR2	6	19	CANDY	230	n/a	n/a	0	0	0
3814747	REC_WORD	wordpools/wasnorm_wordpool_576.txt	LTP336	ltpFR2	6	19	ICING	732	n/a	n/a	0	0	0
3816300	REC_WORD	wordpools/wasnorm_wordpool_576.txt	LTP336	ltpFR2	6	19	JOURNAL	760	n/a	n/a	0	0	0
3817674	REC_WORD	wordpools/wasnorm_wordpool_576.txt	LTP336	ltpFR2	6	19	ROOSTER	1209	n/a	n/a	0	0	0
3819179	REC_WORD	wordpools/wasnorm_wordpool_576.txt	LTP336	ltpFR2	6	19	EAGLE	512	n/a	n/a	0	0	0
3820863	REC_WORD	wordpools/wasnorm_wordpool_576.txt	LTP336	ltpFR2	6	19	VAGRANT	1544	n/a	n/a	0	0	0
3822310	REC_WORD	wordpools/wasnorm_wordpool_576.txt	LTP336	ltpFR2	6	19	PIANO	1057	n/a	n/a	0	0	0
3824070	REC_WORD	wordpools/wasnorm_wordpool_576.txt	LTP336	ltpFR2	6	19	FARMER	553	n/a	n/a	0	0	0
3825796	REC_WORD	wordpools/wasnorm_wordpool_576.txt	LTP336	ltpFR2	6	19	PASTRY	1022	n/a	n/a	0	0	0
3827496	REC_WORD	wordpools/wasnorm_wordpool_576.txt	LTP336	ltpFR2	6	19	COOK	372	n/a	n/a	0	0	0
3828876	REC_WORD	wordpools/wasnorm_wordpool_576.txt	LTP336	ltpFR2	6	19	STOVE	1388	n/a	n/a	0	0	0
3830732	REC_WORD	wordpools/wasnorm_wordpool_576.txt	LTP336	ltpFR2	6	19	CANDY	230	n/a	n/a	0	0	0
3832307	REC_WORD	wordpools/wasnorm_wordpool_576.txt	LTP336	ltpFR2	6	19	PECAN	1036	n/a	n/a	0	0	0
3833790	REC_WORD	wordpools/wasnorm_wordpool_576.txt	LTP336	ltpFR2	6	19	JOURNAL	760	n/a	n/a	0	0	0
3902299	DISTRACTOR	n/a	LTP336	ltpFR2	6	20	n/a	n/a	n/a	n/a	0	0	0
3902299	START	n/a	LTP336	ltpFR2	6	n/a	n/a	n/a	28	n/a	n/a	n/a	n/a
3902316	PROB	n/a	LTP336	ltpFR2	6	n/a	n/a	n/a	28	19	8	3	8
3904766	PROB	n/a	LTP336	ltpFR2	6	n/a	n/a	n/a	28	13	4	6	3
3906197	PROB	n/a	LTP336	ltpFR2	6	n/a	n/a	n/a	28	16	3	6	7
3907781	PROB	n/a	LTP336	ltpFR2	6	n/a	n/a	n/a	28	19	7	9	3
3910013	PROB	n/a	LTP336	ltpFR2	6	n/a	n/a	n/a	28	9	1	5	3
3911729	PROB	n/a	LTP336	ltpFR2	6	n/a	n/a	n/a	28	19	6	4	9
3913177	PROB	n/a	LTP336	ltpFR2	6	n/a	n/a	n/a	28	11	3	5	8
3915177	PROB	n/a	LTP336	ltpFR2	6	n/a	n/a	n/a	28	22	9	9	4
3917010	PROB	n/a	LTP336	ltpFR2	6	n/a	n/a	n/a	28	11	5	3	3
3918909	PROB	n/a	LTP336	ltpFR2	6	n/a	n/a	n/a	28	22	7	8	7
3921374	PROB	n/a	LTP336	ltpFR2	6	n/a	n/a	n/a	28	10	2	7	1
3922674	PROB	n/a	LTP336	ltpFR2	6	n/a	n/a	n/a	28	12	6	1	5
3925345	STOP	n/a	LTP336	ltpFR2	6	n/a	n/a	n/a	28	n/a	n/a	n/a	n/a
3927504	WORD	wordpools/wasnorm_wordpool_576.txt	LTP336	ltpFR2	6	20	JUGGLER	763	n/a	n/a	0	0	0
3930203	WORD	wordpools/wasnorm_wordpool_576.txt	LTP336	ltpFR2	6	20	SKIRT	1319	n/a	n/a	0	0	0
3932903	WORD	wordpools/wasnorm_wordpool_576.txt	LTP336	ltpFR2	6	20	LAPEL	800	n/a	n/a	0	0	0
3935668	WORD	wordpools/wasnorm_wordpool_576.txt	LTP336	ltpFR2	6	20	FOOT	590	n/a	n/a	0	0	0
3938399	WORD	wordpools/wasnorm_wordpool_576.txt	LTP336	ltpFR2	6	20	PIZZA	1079	n/a	n/a	0	0	0
3941215	WORD	wordpools/wasnorm_wordpool_576.txt	LTP336	ltpFR2	6	20	RELISH	1183	n/a	n/a	0	0	0
3943765	WORD	wordpools/wasnorm_wordpool_576.txt	LTP336	ltpFR2	6	20	CUSTARD	429	n/a	n/a	0	0	0
3946246	WORD	wordpools/wasnorm_wordpool_576.txt	LTP336	ltpFR2	6	20	SPHINX	1349	n/a	n/a	0	0	0
3948846	WORD	wordpools/wasnorm_wordpool_576.txt	LTP336	ltpFR2	6	20	MUMMY	932	n/a	n/a	0	0	0
3951577	WORD	wordpools/wasnorm_wordpool_576.txt	LTP336	ltpFR2	6	20	PUDDING	1139	n/a	n/a	0	0	0
3954209	WORD	wordpools/wasnorm_wordpool_576.txt	LTP336	ltpFR2	6	20	HONEY	713	n/a	n/a	0	0	0
3956892	WORD	wordpools/wasnorm_wordpool_576.txt	LTP336	ltpFR2	6	20	RACKET	1155	n/a	n/a	0	0	0
3959641	WORD	wordpools/wasnorm_wordpool_576.txt	LTP336	ltpFR2	6	20	BOYFRIEND	162	n/a	n/a	0	0	0
3962405	WORD	wordpools/wasnorm_wordpool_576.txt	LTP336	ltpFR2	6	20	NURSE	963	n/a	n/a	0	0	0
3964872	WORD	wordpools/wasnorm_wordpool_576.txt	LTP336	ltpFR2	6	20	OUTLAW	989	n/a	n/a	0	0	0
3967336	WORD	wordpools/wasnorm_wordpool_576.txt	LTP336	ltpFR2	6	20	HELMET	702	n/a	n/a	0	0	0
3969769	WORD	wordpools/wasnorm_wordpool_576.txt	LTP336	ltpFR2	6	20	HORNET	718	n/a	n/a	0	0	0
3972467	WORD	wordpools/wasnorm_wordpool_576.txt	LTP336	ltpFR2	6	20	SHRUB	1299	n/a	n/a	0	0	0
3975067	WORD	wordpools/wasnorm_wordpool_576.txt	LTP336	ltpFR2	6	20	WITNESS	1618	n/a	n/a	0	0	0
3977532	WORD	wordpools/wasnorm_wordpool_576.txt	LTP336	ltpFR2	6	20	SANDWICH	1232	n/a	n/a	0	0	0
3980280	WORD	wordpools/wasnorm_wordpool_576.txt	LTP336	ltpFR2	6	20	GRAVE	658	n/a	n/a	0	0	0
3982747	WORD	wordpools/wasnorm_wordpool_576.txt	LTP336	ltpFR2	6	20	SHELTER	1282	n/a	n/a	0	0	0
3985245	WORD	wordpools/wasnorm_wordpool_576.txt	LTP336	ltpFR2	6	20	LODGE	839	n/a	n/a	0	0	0
3987978	WORD	wordpools/wasnorm_wordpool_576.txt	LTP336	ltpFR2	6	20	GIRL	637	n/a	n/a	0	0	0
3989594	START	n/a	LTP336	ltpFR2	6	n/a	n/a	n/a	29	n/a	n/a	n/a	n/a
3990558	DISTRACTOR	n/a	LTP336	ltpFR2	6	20	n/a	n/a	n/a	n/a	0	0	0
3990576	PROB	n/a	LTP336	ltpFR2	6	n/a	n/a	n/a	29	10	5	3	2
3992676	PROB	n/a	LTP336	ltpFR2	6	n/a	n/a	n/a	29	20	7	8	5
3995791	PROB	n/a	LTP336	ltpFR2	6	n/a	n/a	n/a	29	25	7	9	9
3997523	PROB	n/a	LTP336	ltpFR2	6	n/a	n/a	n/a	29	17	3	9	5
4000039	PROB	n/a	LTP336	ltpFR2	6	n/a	n/a	n/a	29	13	3	9	1
4001537	PROB	n/a	LTP336	ltpFR2	6	n/a	n/a	n/a	29	18	3	6	9
4004103	PROB	n/a	LTP336	ltpFR2	6	n/a	n/a	n/a	29	10	4	1	5
4007168	PROB	n/a	LTP336	ltpFR2	6	n/a	n/a	n/a	29	14	7	3	4
4008768	PROB	n/a	LTP336	ltpFR2	6	n/a	n/a	n/a	29	11	1	6	4
4010117	PROB	n/a	LTP336	ltpFR2	6	n/a	n/a	n/a	29	20	8	8	4
4013594	STOP	n/a	LTP336	ltpFR2	6	n/a	n/a	n/a	29	n/a	n/a	n/a	n/a
4015448	REC_START	n/a	LTP336	ltpFR2	6	20	n/a	n/a	n/a	n/a	0	0	0
4016597	REC_WORD	wordpools/wasnorm_wordpool_576.txt	LTP336	ltpFR2	6	20	HONEY	713	n/a	n/a	0	0	0
4017787	REC_WORD	wordpools/wasnorm_wordpool_576.txt	LTP336	ltpFR2	6	20	HELMET	702	n/a	n/a	0	0	0
4019473	REC_WORD	wordpools/wasnorm_wordpool_576.txt	LTP336	ltpFR2	6	20	HORNET	718	n/a	n/a	0	0	0
4021075	REC_WORD	wordpools/wasnorm_wordpool_576.txt	LTP336	ltpFR2	6	20	BOYFRIEND	162	n/a	n/a	0	0	0
4022858	REC_WORD	wordpools/wasnorm_wordpool_576.txt	LTP336	ltpFR2	6	20	RACKET	1155	n/a	n/a	0	0	0
4024653	REC_WORD	wordpools/wasnorm_wordpool_576.txt	LTP336	ltpFR2	6	20	JUGGLER	763	n/a	n/a	0	0	0
4026044	REC_WORD	wordpools/wasnorm_wordpool_576.txt	LTP336	ltpFR2	6	20	PUDDING	1139	n/a	n/a	0	0	0
4105874	DISTRACTOR	n/a	LTP336	ltpFR2	6	21	n/a	n/a	n/a	n/a	0	0	0
4105875	START	n/a	LTP336	ltpFR2	6	n/a	n/a	n/a	30	n/a	n/a	n/a	n/a
4105891	PROB	n/a	LTP336	ltpFR2	6	n/a	n/a	n/a	30	18	9	8	1
4110856	PROB	n/a	LTP336	ltpFR2	6	n/a	n/a	n/a	30	19	5	7	7
4113537	PROB	n/a	LTP336	ltpFR2	6	n/a	n/a	n/a	30	13	4	6	3
4114954	PROB	n/a	LTP336	ltpFR2	6	n/a	n/a	n/a	30	12	5	2	5
4116302	PROB	n/a	LTP336	ltpFR2	6	n/a	n/a	n/a	30	5	1	1	3
4117752	PROB	n/a	LTP336	ltpFR2	6	n/a	n/a	n/a	30	8	1	4	3
4120467	PROB	n/a	LTP336	ltpFR2	6	n/a	n/a	n/a	30	12	2	7	3
4122067	PROB	n/a	LTP336	ltpFR2	6	n/a	n/a	n/a	30	13	3	1	9
4123516	PROB	n/a	LTP336	ltpFR2	6	n/a	n/a	n/a	30	14	1	8	5
4125415	PROB	n/a	LTP336	ltpFR2	6	n/a	n/a	n/a	30	14	3	7	4
4127114	PROB	n/a	LTP336	ltpFR2	6	n/a	n/a	n/a	30	12	6	3	3
4129095	STOP	n/a	LTP336	ltpFR2	6	n/a	n/a	n/a	30	n/a	n/a	n/a	n/a
4131079	WORD	wordpools/wasnorm_wordpool_576.txt	LTP336	ltpFR2	6	21	STAKE	1368	n/a	n/a	0	0	0
4133511	WORD	wordpools/wasnorm_wordpool_576.txt	LTP336	ltpFR2	6	21	GLOVE	642	n/a	n/a	0	0	0
4136093	WORD	wordpools/wasnorm_wordpool_576.txt	LTP336	ltpFR2	6	21	CONCERT	360	n/a	n/a	0	0	0
4138726	WORD	wordpools/wasnorm_wordpool_576.txt	LTP336	ltpFR2	6	21	PERCH	1048	n/a	n/a	0	0	0
4141374	WORD	wordpools/wasnorm_wordpool_576.txt	LTP336	ltpFR2	6	21	NOMAD	955	n/a	n/a	0	0	0
4144123	WORD	wordpools/wasnorm_wordpool_576.txt	LTP336	ltpFR2	6	21	HORSE	719	n/a	n/a	0	0	0
4146906	WORD	wordpools/wasnorm_wordpool_576.txt	LTP336	ltpFR2	6	21	COWBOY	395	n/a	n/a	0	0	0
4149520	WORD	wordpools/wasnorm_wordpool_576.txt	LTP336	ltpFR2	6	21	JAPAN	749	n/a	n/a	0	0	0
4152037	WORD	wordpools/wasnorm_wordpool_576.txt	LTP336	ltpFR2	6	21	ROBIN	1199	n/a	n/a	0	0	0
4154535	WORD	wordpools/wasnorm_wordpool_576.txt	LTP336	ltpFR2	6	21	PEANUT	1032	n/a	n/a	0	0	0
4157084	WORD	wordpools/wasnorm_wordpool_576.txt	LTP336	ltpFR2	6	21	SWORD	1423	n/a	n/a	0	0	0
4159817	WORD	wordpools/wasnorm_wordpool_576.txt	LTP336	ltpFR2	6	21	DANDRUFF	439	n/a	n/a	0	0	0
4162365	WORD	wordpools/wasnorm_wordpool_576.txt	LTP336	ltpFR2	6	21	SPOOL	1356	n/a	n/a	0	0	0
4165097	WORD	wordpools/wasnorm_wordpool_576.txt	LTP336	ltpFR2	6	21	YARN	1631	n/a	n/a	0	0	0
4167613	WORD	wordpools/wasnorm_wordpool_576.txt	LTP336	ltpFR2	6	21	ONION	977	n/a	n/a	0	0	0
4170361	WORD	wordpools/wasnorm_wordpool_576.txt	LTP336	ltpFR2	6	21	HAND	683	n/a	n/a	0	0	0
4173044	WORD	wordpools/wasnorm_wordpool_576.txt	LTP336	ltpFR2	6	21	LAMP	798	n/a	n/a	0	0	0
4175542	WORD	wordpools/wasnorm_wordpool_576.txt	LTP336	ltpFR2	6	21	SUITCASE	1403	n/a	n/a	0	0	0
4178174	WORD	wordpools/wasnorm_wordpool_576.txt	LTP336	ltpFR2	6	21	ISLAND	745	n/a	n/a	0	0	0
4180641	WORD	wordpools/wasnorm_wordpool_576.txt	LTP336	ltpFR2	6	21	SHORTCAKE	1292	n/a	n/a	0	0	0
4183255	WORD	wordpools/wasnorm_wordpool_576.txt	LTP336	ltpFR2	6	21	RUG	1215	n/a	n/a	0	0	0
4185888	WORD	wordpools/wasnorm_wordpool_576.txt	LTP336	ltpFR2	6	21	SEAFOOD	1260	n/a	n/a	0	0	0
4188503	WORD	wordpools/wasnorm_wordpool_576.txt	LTP336	ltpFR2	6	21	DANCER	437	n/a	n/a	0	0	0
4191036	WORD	wordpools/wasnorm_wordpool_576.txt	LTP336	ltpFR2	6	21	ORANGE	980	n/a	n/a	0	0	0
4192652	START	n/a	LTP336	ltpFR2	6	n/a	n/a	n/a	31	n/a	n/a	n/a	n/a
4193569	DISTRACTOR	n/a	LTP336	ltpFR2	6	21	n/a	n/a	n/a	n/a	0	0	0
4193584	PROB	n/a	LTP336	ltpFR2	6	n/a	n/a	n/a	31	11	3	3	5
4195834	PROB	n/a	LTP336	ltpFR2	6	n/a	n/a	n/a	31	10	6	3	1
4197082	PROB	n/a	LTP336	ltpFR2	6	n/a	n/a	n/a	31	13	5	2	6
4199131	PROB	n/a	LTP336	ltpFR2	6	n/a	n/a	n/a	31	21	4	9	8
4201898	PROB	n/a	LTP336	ltpFR2	6	n/a	n/a	n/a	31	4	2	1	1
4203296	PROB	n/a	LTP336	ltpFR2	6	n/a	n/a	n/a	31	7	2	1	4
4205478	PROB	n/a	LTP336	ltpFR2	6	n/a	n/a	n/a	31	11	3	3	5
4207194	PROB	n/a	LTP336	ltpFR2	6	n/a	n/a	n/a	31	16	2	7	7
4208828	PROB	n/a	LTP336	ltpFR2	6	n/a	n/a	n/a	31	21	9	8	4
4214059	PROB	n/a	LTP336	ltpFR2	6	n/a	n/a	n/a	31	18	4	6	8
4215603	STOP	n/a	LTP336	ltpFR2	6	n/a	n/a	n/a	31	n/a	n/a	n/a	n/a
4218406	REC_START	n/a	LTP336	ltpFR2	6	21	n/a	n/a	n/a	n/a	0	0	0
4219423	REC_WORD	wordpools/wasnorm_wordpool_576.txt	LTP336	ltpFR2	6	21	SEAFOOD	1260	n/a	n/a	0	0	0
4220786	REC_WORD	wordpools/wasnorm_wordpool_576.txt	LTP336	ltpFR2	6	21	SHORTCAKE	1292	n/a	n/a	0	0	0
4222237	REC_WORD	wordpools/wasnorm_wordpool_576.txt	LTP336	ltpFR2	6	21	STAKE	1368	n/a	n/a	0	0	0
4223895	REC_WORD	wordpools/wasnorm_wordpool_576.txt	LTP336	ltpFR2	6	21	DANCER	437	n/a	n/a	0	0	0
4308849	WORD	wordpools/wasnorm_wordpool_576.txt	LTP336	ltpFR2	6	22	JURY	766	n/a	n/a	0	0	0
4311464	WORD	wordpools/wasnorm_wordpool_576.txt	LTP336	ltpFR2	6	22	VICTIM	1562	n/a	n/a	0	0	0
4313930	WORD	wordpools/wasnorm_wordpool_576.txt	LTP336	ltpFR2	6	22	FLUTE	585	n/a	n/a	0	0	0
4316729	WORD	wordpools/wasnorm_wordpool_576.txt	LTP336	ltpFR2	6	22	GRIZZLY	662	n/a	n/a	0	0	0
4319460	WORD	wordpools/wasnorm_wordpool_576.txt	LTP336	ltpFR2	6	22	GIFT	635	n/a	n/a	0	0	0
4321960	WORD	wordpools/wasnorm_wordpool_576.txt	LTP336	ltpFR2	6	22	RATTLE	1170	n/a	n/a	0	0	0
4324458	WORD	wordpools/wasnorm_wordpool_576.txt	LTP336	ltpFR2	6	22	LIZARD	834	n/a	n/a	0	0	0
4327223	WORD	wordpools/wasnorm_wordpool_576.txt	LTP336	ltpFR2	6	22	WRENCH	1625	n/a	n/a	0	0	0
4329940	WORD	wordpools/wasnorm_wordpool_576.txt	LTP336	ltpFR2	6	22	FIREMAN	569	n/a	n/a	0	0	0
4332371	WORD	wordpools/wasnorm_wordpool_576.txt	LTP336	ltpFR2	6	22	WAITRESS	1581	n/a	n/a	0	0	0
4334871	WORD	wordpools/wasnorm_wordpool_576.txt	LTP336	ltpFR2	6	22	ITEM	746	n/a	n/a	0	0	0
4337485	WORD	wordpools/wasnorm_wordpool_576.txt	LTP336	ltpFR2	6	22	DAISY	435	n/a	n/a	0	0	0
4339935	WORD	wordpools/wasnorm_wordpool_576.txt	LTP336	ltpFR2	6	22	BUCKET	184	n/a	n/a	0	0	0
4342601	WORD	wordpools/wasnorm_wordpool_576.txt	LTP336	ltpFR2	6	22	OINTMENT	974	n/a	n/a	0	0	0
4345215	WORD	wordpools/wasnorm_wordpool_576.txt	LTP336	ltpFR2	6	22	BOX	159	n/a	n/a	0	0	0
4347932	WORD	wordpools/wasnorm_wordpool_576.txt	LTP336	ltpFR2	6	22	BROTHER	179	n/a	n/a	0	0	0
4350747	WORD	wordpools/wasnorm_wordpool_576.txt	LTP336	ltpFR2	6	22	NOVEL	960	n/a	n/a	0	0	0
4353378	WORD	wordpools/wasnorm_wordpool_576.txt	LTP336	ltpFR2	6	22	PLIERS	1089	n/a	n/a	0	0	0
4356194	WORD	wordpools/wasnorm_wordpool_576.txt	LTP336	ltpFR2	6	22	DRUG	501	n/a	n/a	0	0	0
4358743	WORD	wordpools/wasnorm_wordpool_576.txt	LTP336	ltpFR2	6	22	BATHTUB	100	n/a	n/a	0	0	0
4361291	WORD	wordpools/wasnorm_wordpool_576.txt	LTP336	ltpFR2	6	22	BUG	187	n/a	n/a	0	0	0
4364074	WORD	wordpools/wasnorm_wordpool_576.txt	LTP336	ltpFR2	6	22	HEADBAND	696	n/a	n/a	0	0	0
4366607	WORD	wordpools/wasnorm_wordpool_576.txt	LTP336	ltpFR2	6	22	CHEST	295	n/a	n/a	0	0	0
4369238	WORD	wordpools/wasnorm_wordpool_576.txt	LTP336	ltpFR2	6	22	HAMPER	682	n/a	n/a	0	0	0
4370855	START	n/a	LTP336	ltpFR2	6	n/a	n/a	n/a	32	n/a	n/a	n/a	n/a
4371686	DISTRACTOR	n/a	LTP336	ltpFR2	6	22	n/a	n/a	n/a	n/a	0	0	0
4371688	PROB	n/a	LTP336	ltpFR2	6	n/a	n/a	n/a	32	21	6	9	6
4375518	PROB	n/a	LTP336	ltpFR2	6	n/a	n/a	n/a	32	10	3	5	2
4377052	PROB	n/a	LTP336	ltpFR2	6	n/a	n/a	n/a	32	14	6	6	2
4378768	PROB	n/a	LTP336	ltpFR2	6	n/a	n/a	n/a	32	15	8	2	5
4380067	PROB	n/a	LTP336	ltpFR2	6	n/a	n/a	n/a	32	7	4	1	2
4382315	PROB	n/a	LTP336	ltpFR2	6	n/a	n/a	n/a	32	10	2	4	4
4383682	PROB	n/a	LTP336	ltpFR2	6	n/a	n/a	n/a	32	8	2	5	1
4385881	PROB	n/a	LTP336	ltpFR2	6	n/a	n/a	n/a	32	18	5	9	4
4388863	PROB	n/a	LTP336	ltpFR2	6	n/a	n/a	n/a	32	25	8	9	8
4393520	STOP	n/a	LTP336	ltpFR2	6	n/a	n/a	n/a	32	n/a	n/a	n/a	n/a
4396760	REC_START	n/a	LTP336	ltpFR2	6	22	n/a	n/a	n/a	n/a	0	0	0
4397989	REC_WORD	wordpools/wasnorm_wordpool_576.txt	LTP336	ltpFR2	6	22	DRUG	501	n/a	n/a	0	0	0
4399230	REC_WORD	wordpools/wasnorm_wordpool_576.txt	LTP336	ltpFR2	6	22	HEADBAND	696	n/a	n/a	0	0	0
4400903	REC_WORD	wordpools/wasnorm_wordpool_576.txt	LTP336	ltpFR2	6	22	HAMPER	682	n/a	n/a	0	0	0
4402828	REC_WORD	wordpools/wasnorm_wordpool_576.txt	LTP336	ltpFR2	6	22	CHEST	295	n/a	n/a	0	0	0
4404346	REC_WORD	wordpools/wasnorm_wordpool_576.txt	LTP336	ltpFR2	6	22	JURY	766	n/a	n/a	0	0	0
4406011	REC_WORD	wordpools/wasnorm_wordpool_576.txt	LTP336	ltpFR2	6	22	WAITRESS	1581	n/a	n/a	0	0	0
4410328	REC_WORD	wordpools/wasnorm_wordpool_576.txt	LTP336	ltpFR2	6	22	WRENCH	1625	n/a	n/a	0	0	0
4412102	REC_WORD	wordpools/wasnorm_wordpool_576.txt	LTP336	ltpFR2	6	22	ITEM	746	n/a	n/a	0	0	0
4413608	REC_WORD	wordpools/wasnorm_wordpool_576.txt	LTP336	ltpFR2	6	22	OINTMENT	974	n/a	n/a	0	0	0
4487201	DISTRACTOR	n/a	LTP336	ltpFR2	6	23	n/a	n/a	n/a	n/a	0	0	0
4487201	START	n/a	LTP336	ltpFR2	6	n/a	n/a	n/a	33	n/a	n/a	n/a	n/a
4487218	PROB	n/a	LTP336	ltpFR2	6	n/a	n/a	n/a	33	17	7	2	8
4489634	PROB	n/a	LTP336	ltpFR2	6	n/a	n/a	n/a	33	15	8	5	2
4492182	PROB	n/a	LTP336	ltpFR2	6	n/a	n/a	n/a	33	12	2	5	5
4493548	PROB	n/a	LTP336	ltpFR2	6	n/a	n/a	n/a	33	11	3	1	7
4494915	PROB	n/a	LTP336	ltpFR2	6	n/a	n/a	n/a	33	16	4	8	4
4497196	PROB	n/a	LTP336	ltpFR2	6	n/a	n/a	n/a	33	13	3	2	8
4499145	PROB	n/a	LTP336	ltpFR2	6	n/a	n/a	n/a	33	25	9	9	7
4501428	PROB	n/a	LTP336	ltpFR2	6	n/a	n/a	n/a	33	11	4	3	3
4503761	PROB	n/a	LTP336	ltpFR2	6	n/a	n/a	n/a	33	8	5	2	1
4505627	PROB	n/a	LTP336	ltpFR2	6	n/a	n/a	n/a	33	16	5	6	5
4507909	PROB	n/a	LTP336	ltpFR2	6	n/a	n/a	n/a	33	21	8	4	9
4510988	STOP	n/a	LTP336	ltpFR2	6	n/a	n/a	n/a	33	n/a	n/a	n/a	n/a
4512390	WORD	wordpools/wasnorm_wordpool_576.txt	LTP336	ltpFR2	6	23	BADGE	68	n/a	n/a	0	0	0
4515006	WORD	wordpools/wasnorm_wordpool_576.txt	LTP336	ltpFR2	6	23	CABIN	211	n/a	n/a	0	0	0
4517605	WORD	wordpools/wasnorm_wordpool_576.txt	LTP336	ltpFR2	6	23	BRICK	172	n/a	n/a	0	0	0
4520153	WORD	wordpools/wasnorm_wordpool_576.txt	LTP336	ltpFR2	6	23	BULLET	194	n/a	n/a	0	0	0
4522585	WORD	wordpools/wasnorm_wordpool_576.txt	LTP336	ltpFR2	6	23	GANGSTER	620	n/a	n/a	0	0	0
4525400	WORD	wordpools/wasnorm_wordpool_576.txt	LTP336	ltpFR2	6	23	MAILMAN	858	n/a	n/a	0	0	0
4527983	WORD	wordpools/wasnorm_wordpool_576.txt	LTP336	ltpFR2	6	23	DRIVER	499	n/a	n/a	0	0	0
4530531	WORD	wordpools/wasnorm_wordpool_576.txt	LTP336	ltpFR2	6	23	RABBIT	1152	n/a	n/a	0	0	0
4533097	WORD	wordpools/wasnorm_wordpool_576.txt	LTP336	ltpFR2	6	23	NEUTRON	947	n/a	n/a	0	0	0
4535546	WORD	wordpools/wasnorm_wordpool_576.txt	LTP336	ltpFR2	6	23	LAGOON	795	n/a	n/a	0	0	0
4538078	WORD	wordpools/wasnorm_wordpool_576.txt	LTP336	ltpFR2	6	23	WAGON	1578	n/a	n/a	0	0	0
4540828	WORD	wordpools/wasnorm_wordpool_576.txt	LTP336	ltpFR2	6	23	TURKEY	1520	n/a	n/a	0	0	0
4543610	WORD	wordpools/wasnorm_wordpool_576.txt	LTP336	ltpFR2	6	23	TROUT	1511	n/a	n/a	0	0	0
4546374	WORD	wordpools/wasnorm_wordpool_576.txt	LTP336	ltpFR2	6	23	LABEL	790	n/a	n/a	0	0	0
4549139	WORD	wordpools/wasnorm_wordpool_576.txt	LTP336	ltpFR2	6	23	BUREAU	199	n/a	n/a	0	0	0
4551906	WORD	wordpools/wasnorm_wordpool_576.txt	LTP336	ltpFR2	6	23	DRAGON	492	n/a	n/a	0	0	0
4554605	WORD	wordpools/wasnorm_wordpool_576.txt	LTP336	ltpFR2	6	23	FUNGUS	614	n/a	n/a	0	0	0
4557119	WORD	wordpools/wasnorm_wordpool_576.txt	LTP336	ltpFR2	6	23	OYSTER	995	n/a	n/a	0	0	0
4559752	WORD	wordpools/wasnorm_wordpool_576.txt	LTP336	ltpFR2	6	23	PORK	1108	n/a	n/a	0	0	0
4562533	WORD	wordpools/wasnorm_wordpool_576.txt	LTP336	ltpFR2	6	23	PERMIT	1051	n/a	n/a	0	0	0
4565249	WORD	wordpools/wasnorm_wordpool_576.txt	LTP336	ltpFR2	6	23	BARREL	91	n/a	n/a	0	0	0
4567815	WORD	wordpools/wasnorm_wordpool_576.txt	LTP336	ltpFR2	6	23	DASHBOARD	441	n/a	n/a	0	0	0
4570413	WORD	wordpools/wasnorm_wordpool_576.txt	LTP336	ltpFR2	6	23	SHERIFF	1284	n/a	n/a	0	0	0
4573046	WORD	wordpools/wasnorm_wordpool_576.txt	LTP336	ltpFR2	6	23	ARM	38	n/a	n/a	0	0	0
4574662	START	n/a	LTP336	ltpFR2	6	n/a	n/a	n/a	34	n/a	n/a	n/a	n/a
4575471	DISTRACTOR	n/a	LTP336	ltpFR2	6	23	n/a	n/a	n/a	n/a	0	0	0
4575478	PROB	n/a	LTP336	ltpFR2	6	n/a	n/a	n/a	34	15	6	4	5
4577778	PROB	n/a	LTP336	ltpFR2	6	n/a	n/a	n/a	34	15	3	8	4
4580109	PROB	n/a	LTP336	ltpFR2	6	n/a	n/a	n/a	34	10	6	3	1
4581458	PROB	n/a	LTP336	ltpFR2	6	n/a	n/a	n/a	34	12	2	5	5
4582759	PROB	n/a	LTP336	ltpFR2	6	n/a	n/a	n/a	34	10	2	1	7
4584008	PROB	n/a	LTP336	ltpFR2	6	n/a	n/a	n/a	34	16	3	7	6
4585874	PROB	n/a	LTP336	ltpFR2	6	n/a	n/a	n/a	34	8	1	5	2
4588073	PROB	n/a	LTP336	ltpFR2	6	n/a	n/a	n/a	34	12	2	9	1
4589355	PROB	n/a	LTP336	ltpFR2	6	n/a	n/a	n/a	34	10	7	2	1
4590672	PROB	n/a	LTP336	ltpFR2	6	n/a	n/a	n/a	34	15	4	8	3
4593436	PROB	n/a	LTP336	ltpFR2	6	n/a	n/a	n/a	34	13	1	8	4
4595119	PROB	n/a	LTP336	ltpFR2	6	n/a	n/a	n/a	34	14	9	3	2
4598662	STOP	n/a	LTP336	ltpFR2	6	n/a	n/a	n/a	34	n/a	n/a	n/a	n/a
4600450	REC_START	n/a	LTP336	ltpFR2	6	23	n/a	n/a	n/a	n/a	0	0	0
4601534	REC_WORD	wordpools/wasnorm_wordpool_576.txt	LTP336	ltpFR2	6	23	SHERIFF	1284	n/a	n/a	0	0	0
4602484	REC_WORD_VV	wordpools/wasnorm_wordpool_576.txt	LTP336	ltpFR2	6	23	<>	-1	n/a	n/a	0	0	0
4603191	REC_WORD	wordpools/wasnorm_wordpool_576.txt	LTP336	ltpFR2	6	23	ARM	38	n/a	n/a	0	0	0
4604403	REC_WORD	wordpools/wasnorm_wordpool_576.txt	LTP336	ltpFR2	6	23	DASHBOARD	441	n/a	n/a	0	0	0
4606269	REC_WORD	wordpools/wasnorm_wordpool_576.txt	LTP336	ltpFR2	6	23	GANGSTER	620	n/a	n/a	0	0	0
4607861	REC_WORD	wordpools/wasnorm_wordpool_576.txt	LTP336	ltpFR2	6	23	DRIVER	499	n/a	n/a	0	0	0
4609243	REC_WORD	wordpools/wasnorm_wordpool_576.txt	LTP336	ltpFR2	6	23	MAILMAN	858	n/a	n/a	0	0	0
4610767	REC_WORD	wordpools/wasnorm_wordpool_576.txt	LTP336	ltpFR2	6	23	BULLET	194	n/a	n/a	0	0	0
4612098	REC_WORD	wordpools/wasnorm_wordpool_576.txt	LTP336	ltpFR2	6	23	BARREL	91	n/a	n/a	0	0	0
4613519	REC_WORD	wordpools/wasnorm_wordpool_576.txt	LTP336	ltpFR2	6	23	BADGE	68	n/a	n/a	0	0	0
4615373	REC_WORD	wordpools/wasnorm_wordpool_576.txt	LTP336	ltpFR2	6	23	PERMIT	1051	n/a	n/a	0	0	0
4616749	REC_WORD	wordpools/wasnorm_wordpool_576.txt	LTP336	ltpFR2	6	23	PORK	1108	n/a	n/a	0	0	0
4618079	REC_WORD	wordpools/wasnorm_wordpool_576.txt	LTP336	ltpFR2	6	23	OYSTER	995	n/a	n/a	0	0	0
4619863	REC_WORD	wordpools/wasnorm_wordpool_576.txt	LTP336	ltpFR2	6	23	TROUT	1511	n/a	n/a	0	0	0
4621148	REC_WORD	wordpools/wasnorm_wordpool_576.txt	LTP336	ltpFR2	6	23	TURKEY	1520	n/a	n/a	0	0	0
4622821	REC_WORD	wordpools/wasnorm_wordpool_576.txt	LTP336	ltpFR2	6	23	RABBIT	1152	n/a	n/a	0	0	0
4630961	REC_WORD	wordpools/wasnorm_wordpool_576.txt	LTP336	ltpFR2	6	23	LABEL	790	n/a	n/a	0	0	0
4690876	DISTRACTOR	n/a	LTP336	ltpFR2	6	24	n/a	n/a	n/a	n/a	0	0	0
4690876	START	n/a	LTP336	ltpFR2	6	n/a	n/a	n/a	35	n/a	n/a	n/a	n/a
4690893	PROB	n/a	LTP336	ltpFR2	6	n/a	n/a	n/a	35	7	5	1	1
4693675	PROB	n/a	LTP336	ltpFR2	6	n/a	n/a	n/a	35	15	8	5	2
4695273	PROB	n/a	LTP336	ltpFR2	6	n/a	n/a	n/a	35	19	9	2	8
4697239	PROB	n/a	LTP336	ltpFR2	6	n/a	n/a	n/a	35	11	4	5	2
4698723	PROB	n/a	LTP336	ltpFR2	6	n/a	n/a	n/a	35	17	2	9	6
4701554	PROB	n/a	LTP336	ltpFR2	6	n/a	n/a	n/a	35	10	6	2	2
4703004	PROB	n/a	LTP336	ltpFR2	6	n/a	n/a	n/a	35	9	5	2	2
4704837	PROB	n/a	LTP336	ltpFR2	6	n/a	n/a	n/a	35	16	1	6	9
4706602	PROB	n/a	LTP336	ltpFR2	6	n/a	n/a	n/a	35	7	3	2	2
4710117	PROB	n/a	LTP336	ltpFR2	6	n/a	n/a	n/a	35	13	2	5	6
4711833	PROB	n/a	LTP336	ltpFR2	6	n/a	n/a	n/a	35	9	1	5	3
4714282	STOP	n/a	LTP336	ltpFR2	6	n/a	n/a	n/a	35	n/a	n/a	n/a	n/a
4715932	WORD	wordpools/wasnorm_wordpool_576.txt	LTP336	ltpFR2	6	24	POISON	1096	n/a	n/a	0	0	0
4718479	WORD	wordpools/wasnorm_wordpool_576.txt	LTP336	ltpFR2	6	24	RAFT	1159	n/a	n/a	0	0	0
4721228	WORD	wordpools/wasnorm_wordpool_576.txt	LTP336	ltpFR2	6	24	EYELASH	546	n/a	n/a	0	0	0
4723778	WORD	wordpools/wasnorm_wordpool_576.txt	LTP336	ltpFR2	6	24	ASIA	46	n/a	n/a	0	0	0
4726492	WORD	wordpools/wasnorm_wordpool_576.txt	LTP336	ltpFR2	6	24	CABBAGE	210	n/a	n/a	0	0	0
4728959	WORD	wordpools/wasnorm_wordpool_576.txt	LTP336	ltpFR2	6	24	TWISTER	1530	n/a	n/a	0	0	0
4731557	WORD	wordpools/wasnorm_wordpool_576.txt	LTP336	ltpFR2	6	24	SALMON	1227	n/a	n/a	0	0	0
4734172	WORD	wordpools/wasnorm_wordpool_576.txt	LTP336	ltpFR2	6	24	SCARECROW	1245	n/a	n/a	0	0	0
4736922	WORD	wordpools/wasnorm_wordpool_576.txt	LTP336	ltpFR2	6	24	LADY	794	n/a	n/a	0	0	0
4739487	WORD	wordpools/wasnorm_wordpool_576.txt	LTP336	ltpFR2	6	24	MISTER	901	n/a	n/a	0	0	0
4742085	WORD	wordpools/wasnorm_wordpool_576.txt	LTP336	ltpFR2	6	24	WASP	1593	n/a	n/a	0	0	0
4744702	WORD	wordpools/wasnorm_wordpool_576.txt	LTP336	ltpFR2	6	24	PARENT	1013	n/a	n/a	0	0	0
4747183	WORD	wordpools/wasnorm_wordpool_576.txt	LTP336	ltpFR2	6	24	ORCHID	982	n/a	n/a	0	0	0
4749716	WORD	wordpools/wasnorm_wordpool_576.txt	LTP336	ltpFR2	6	24	PEDAL	1037	n/a	n/a	0	0	0
4752364	WORD	wordpools/wasnorm_wordpool_576.txt	LTP336	ltpFR2	6	24	TUBA	1515	n/a	n/a	0	0	0
4755179	WORD	wordpools/wasnorm_wordpool_576.txt	LTP336	ltpFR2	6	24	ELBOW	520	n/a	n/a	0	0	0
4757796	WORD	wordpools/wasnorm_wordpool_576.txt	LTP336	ltpFR2	6	24	SNAKE	1333	n/a	n/a	0	0	0
4760311	WORD	wordpools/wasnorm_wordpool_576.txt	LTP336	ltpFR2	6	24	ROBOT	1200	n/a	n/a	0	0	0
4762877	WORD	wordpools/wasnorm_wordpool_576.txt	LTP336	ltpFR2	6	24	GLOBE	641	n/a	n/a	0	0	0
4765575	WORD	wordpools/wasnorm_wordpool_576.txt	LTP336	ltpFR2	6	24	CRUTCH	417	n/a	n/a	0	0	0
4768240	WORD	wordpools/wasnorm_wordpool_576.txt	LTP336	ltpFR2	6	24	FRIAR	605	n/a	n/a	0	0	0
4770673	WORD	wordpools/wasnorm_wordpool_576.txt	LTP336	ltpFR2	6	24	CROSS	413	n/a	n/a	0	0	0
4773421	WORD	wordpools/wasnorm_wordpool_576.txt	LTP336	ltpFR2	6	24	PREACHER	1119	n/a	n/a	0	0	0
4775888	WORD	wordpools/wasnorm_wordpool_576.txt	LTP336	ltpFR2	6	24	AWARD	63	n/a	n/a	0	0	0
