onset	duration	trial_type	sample	stim_file	subject	experiment	session	trial	task	item_name	item_num	recog_conf	resp	color_b	color_g	color_r	case	font
325.046	n/a	SESS_START	162523	n/a	LTP132	ltpFR	3	n/a	n/a	n/a	n/a	4	n/a	n/a	n/a	n/a	n/a	n/a
393.456	n/a	WORD	196728	wordpools/wasnorm_wordpool.txt	LTP132	ltpFR	3	1	0	GRAVE	658	n/a	1	1	0.412841796875	0.57763671875	upper	../fonts/zerothre.ttf
397.516	n/a	WORD	198758	wordpools/wasnorm_wordpool.txt	LTP132	ltpFR	3	1	0	COMEDIAN	352	n/a	1	1	0.412841796875	0.57763671875	upper	../fonts/zerothre.ttf
401.528	n/a	WORD	200764	wordpools/wasnorm_wordpool.txt	LTP132	ltpFR	3	1	1	CUCUMBER	421	n/a	1	0	0.5869140625	0.422607421875	lower	../fonts/amplitud.ttf
405.598	n/a	WORD	202799	wordpools/wasnorm_wordpool.txt	LTP132	ltpFR	3	1	1	COOLER	375	n/a	0	0	0.5869140625	0.422607421875	lower	../fonts/amplitud.ttf
409.602	n/a	WORD	204801	wordpools/wasnorm_wordpool.txt	LTP132	ltpFR	3	1	1	MERMAID	887	n/a	1	0	0.5869140625	0.422607421875	lower	../fonts/amplitud.ttf
413.714	n/a	WORD	206857	wordpools/wasnorm_wordpool.txt	LTP132	ltpFR	3	1	1	FLEA	577	n/a	1	0	0.5869140625	0.422607421875	lower	../fonts/amplitud.ttf
417.884	n/a	WORD	208942	wordpools/wasnorm_wordpool.txt	LTP132	ltpFR	3	1	0	WOLF	1619	n/a	1	1	0.412841796875	0.57763671875	upper	../fonts/zerothre.ttf
421.73	n/a	WORD	210865	wordpools/wasnorm_wordpool.txt	LTP132	ltpFR	3	1	0	ULCER	1533	n/a	0	1	0.412841796875	0.57763671875	upper	../fonts/zerothre.ttf
425.8	n/a	WORD	212900	wordpools/wasnorm_wordpool.txt	LTP132	ltpFR	3	1	0	ORGAN	984	n/a	0	1	0.412841796875	0.57763671875	upper	../fonts/zerothre.ttf
429.862	n/a	WORD	214931	wordpools/wasnorm_wordpool.txt	LTP132	ltpFR	3	1	0	TEACHER	1440	n/a	1	1	0.412841796875	0.57763671875	upper	../fonts/zerothre.ttf
433.84	n/a	WORD	216920	wordpools/wasnorm_wordpool.txt	LTP132	ltpFR	3	1	0	ACROBAT	4	n/a	1	1	0.412841796875	0.57763671875	upper	../fonts/zerothre.ttf
438.01	n/a	WORD	219005	wordpools/wasnorm_wordpool.txt	LTP132	ltpFR	3	1	0	ATHLETE	52	n/a	1	1	0.412841796875	0.57763671875	upper	../fonts/zerothre.ttf
442.14	n/a	WORD	221070	wordpools/wasnorm_wordpool.txt	LTP132	ltpFR	3	1	1	WHALE	1601	n/a	1	0	0.5869140625	0.422607421875	lower	../fonts/amplitud.ttf
446.002	n/a	WORD	223001	wordpools/wasnorm_wordpool.txt	LTP132	ltpFR	3	1	1	SWEATER	1419	n/a	0	0	0.5869140625	0.422607421875	lower	../fonts/amplitud.ttf
450.072	n/a	WORD	225036	wordpools/wasnorm_wordpool.txt	LTP132	ltpFR	3	1	1	SANDWICH	1232	n/a	0	0	0.5869140625	0.422607421875	lower	../fonts/amplitud.ttf
453.95	n/a	WORD	226975	wordpools/wasnorm_wordpool.txt	LTP132	ltpFR	3	1	1	FAMILY	550	n/a	1	0	0.5869140625	0.422607421875	lower	../fonts/amplitud.ttf
459.87	n/a	REC_START	229935	n/a	LTP132	ltpFR	3	1	n/a	n/a	n/a	n/a	n/a	n/a	n/a	n/a	n/a	n/a
460.438	n/a	REC_WORD	230219	wordpools/wasnorm_wordpool.txt	LTP132	ltpFR	3	1	1	WHALE	1601	n/a	1	n/a	n/a	n/a	n/a	n/a
461.122	n/a	REC_WORD	230561	wordpools/wasnorm_wordpool.txt	LTP132	ltpFR	3	1	1	SWEATER	1419	n/a	0	n/a	n/a	n/a	n/a	n/a
462.05	n/a	REC_WORD	231025	wordpools/wasnorm_wordpool.txt	LTP132	ltpFR	3	1	1	SANDWICH	1232	n/a	0	n/a	n/a	n/a	n/a	n/a
462.962	n/a	REC_WORD	231481	wordpools/wasnorm_wordpool.txt	LTP132	ltpFR	3	1	1	FAMILY	550	n/a	1	n/a	n/a	n/a	n/a	n/a
463.996	n/a	REC_WORD	231998	wordpools/wasnorm_wordpool.txt	LTP132	ltpFR	3	1	0	ACROBAT	4	n/a	1	n/a	n/a	n/a	n/a	n/a
464.838	n/a	REC_WORD	232419	wordpools/wasnorm_wordpool.txt	LTP132	ltpFR	3	1	0	COMEDIAN	352	n/a	1	n/a	n/a	n/a	n/a	n/a
465.762	n/a	REC_WORD	232881	wordpools/wasnorm_wordpool.txt	LTP132	ltpFR	3	1	0	GRAVE	658	n/a	1	n/a	n/a	n/a	n/a	n/a
466.54	n/a	REC_WORD	233270	wordpools/wasnorm_wordpool.txt	LTP132	ltpFR	3	1	1	CUCUMBER	421	n/a	1	n/a	n/a	n/a	n/a	n/a
467.578	n/a	REC_WORD	233789	wordpools/wasnorm_wordpool.txt	LTP132	ltpFR	3	1	1	COOLER	375	n/a	0	n/a	n/a	n/a	n/a	n/a
469.03	n/a	REC_WORD	234515	wordpools/wasnorm_wordpool.txt	LTP132	ltpFR	3	1	0	ULCER	1533	n/a	0	n/a	n/a	n/a	n/a	n/a
470.072	n/a	REC_WORD	235036	wordpools/wasnorm_wordpool.txt	LTP132	ltpFR	3	1	0	ORGAN	984	n/a	0	n/a	n/a	n/a	n/a	n/a
474.566	n/a	REC_WORD	237283	wordpools/wasnorm_wordpool.txt	LTP132	ltpFR	3	1	0	TEACHER	1440	n/a	1	n/a	n/a	n/a	n/a	n/a
499.256	n/a	REC_WORD	249628	wordpools/wasnorm_wordpool.txt	LTP132	ltpFR	3	1	1	WHALE	1601	n/a	1	n/a	n/a	n/a	n/a	n/a
507.358	n/a	REC_WORD	253679	wordpools/wasnorm_wordpool.txt	LTP132	ltpFR	3	1	1	FLEA	577	n/a	1	n/a	n/a	n/a	n/a	n/a
509.428	n/a	REC_WORD	254714	wordpools/wasnorm_wordpool.txt	LTP132	ltpFR	3	1	0	WOLF	1619	n/a	1	n/a	n/a	n/a	n/a	n/a
530.584	n/a	REC_WORD	265292	wordpools/wasnorm_wordpool.txt	LTP132	ltpFR	3	1	0	GRAVE	658	n/a	1	n/a	n/a	n/a	n/a	n/a
543.466	n/a	WORD	271733	wordpools/wasnorm_wordpool.txt	LTP132	ltpFR	3	2	1	SEED	1266	n/a	1	0	0.5869140625	0.422607421875	lower	../fonts/amplitud.ttf
547.512	n/a	WORD	273756	wordpools/wasnorm_wordpool.txt	LTP132	ltpFR	3	2	1	CURB	426	n/a	0	0	0.5869140625	0.422607421875	lower	../fonts/amplitud.ttf
551.556	n/a	WORD	275778	wordpools/wasnorm_wordpool.txt	LTP132	ltpFR	3	2	0	ALBUM	14	n/a	0	1	0.412841796875	0.57763671875	upper	../fonts/zerothre.ttf
555.76	n/a	WORD	277880	wordpools/wasnorm_wordpool.txt	LTP132	ltpFR	3	2	0	BUFFALO	186	n/a	1	1	0.412841796875	0.57763671875	upper	../fonts/zerothre.ttf
559.896	n/a	WORD	279948	wordpools/wasnorm_wordpool.txt	LTP132	ltpFR	3	2	0	IGLOO	734	n/a	1	1	0.412841796875	0.57763671875	upper	../fonts/zerothre.ttf
563.884	n/a	WORD	281942	wordpools/wasnorm_wordpool.txt	LTP132	ltpFR	3	2	0	POLITICIAN	1099	n/a	1	1	0.412841796875	0.57763671875	upper	../fonts/zerothre.ttf
567.954	n/a	WORD	283977	wordpools/wasnorm_wordpool.txt	LTP132	ltpFR	3	2	1	BANQUET	86	n/a	0	0	0.5869140625	0.422607421875	lower	../fonts/amplitud.ttf
571.858	n/a	WORD	285929	wordpools/wasnorm_wordpool.txt	LTP132	ltpFR	3	2	1	RESTAURANT	1187	n/a	0	0	0.5869140625	0.422607421875	lower	../fonts/amplitud.ttf
575.894	n/a	WORD	287947	wordpools/wasnorm_wordpool.txt	LTP132	ltpFR	3	2	1	RECORD	1176	n/a	0	0	0.5869140625	0.422607421875	lower	../fonts/amplitud.ttf
579.94	n/a	WORD	289970	wordpools/wasnorm_wordpool.txt	LTP132	ltpFR	3	2	1	MAILMAN	858	n/a	1	0	0.5869140625	0.422607421875	lower	../fonts/amplitud.ttf
583.786	n/a	WORD	291893	wordpools/wasnorm_wordpool.txt	LTP132	ltpFR	3	2	1	CAT	257	n/a	1	0	0.5869140625	0.422607421875	lower	../fonts/amplitud.ttf
587.806	n/a	WORD	293903	wordpools/wasnorm_wordpool.txt	LTP132	ltpFR	3	2	1	CROCODILE	411	n/a	1	0	0.5869140625	0.422607421875	lower	../fonts/amplitud.ttf
591.91	n/a	WORD	295955	wordpools/wasnorm_wordpool.txt	LTP132	ltpFR	3	2	0	INSTRUCTOR	741	n/a	1	1	0.412841796875	0.57763671875	upper	../fonts/zerothre.ttf
596.014	n/a	WORD	298007	wordpools/wasnorm_wordpool.txt	LTP132	ltpFR	3	2	0	RUST	1219	n/a	0	1	0.412841796875	0.57763671875	upper	../fonts/zerothre.ttf
599.942	n/a	WORD	299971	wordpools/wasnorm_wordpool.txt	LTP132	ltpFR	3	2	0	BOTTLE	153	n/a	0	1	0.412841796875	0.57763671875	upper	../fonts/zerothre.ttf
603.92	n/a	WORD	301960	wordpools/wasnorm_wordpool.txt	LTP132	ltpFR	3	2	0	MUG	930	n/a	0	1	0.412841796875	0.57763671875	upper	../fonts/zerothre.ttf
609.674	n/a	REC_START	304837	n/a	LTP132	ltpFR	3	2	n/a	n/a	n/a	n/a	n/a	n/a	n/a	n/a	n/a	n/a
610.252	n/a	REC_WORD	305126	wordpools/wasnorm_wordpool.txt	LTP132	ltpFR	3	2	0	BOTTLE	153	n/a	0	n/a	n/a	n/a	n/a	n/a
611.204	n/a	REC_WORD	305602	wordpools/wasnorm_wordpool.txt	LTP132	ltpFR	3	2	0	MUG	930	n/a	0	n/a	n/a	n/a	n/a	n/a
611.992	n/a	REC_WORD	305996	wordpools/wasnorm_wordpool.txt	LTP132	ltpFR	3	2	0	INSTRUCTOR	741	n/a	1	n/a	n/a	n/a	n/a	n/a
613.814	n/a	REC_WORD	306907	wordpools/wasnorm_wordpool.txt	LTP132	ltpFR	3	2	1	SEED	1266	n/a	1	n/a	n/a	n/a	n/a	n/a
616.916	n/a	REC_WORD	308458	wordpools/wasnorm_wordpool.txt	LTP132	ltpFR	3	2	1	CAT	257	n/a	1	n/a	n/a	n/a	n/a	n/a
617.526	n/a	REC_WORD	308763	wordpools/wasnorm_wordpool.txt	LTP132	ltpFR	3	2	1	MAILMAN	858	n/a	1	n/a	n/a	n/a	n/a	n/a
621.252	n/a	REC_WORD	310626	wordpools/wasnorm_wordpool.txt	LTP132	ltpFR	3	2	1	CROCODILE	411	n/a	1	n/a	n/a	n/a	n/a	n/a
648.412	n/a	REC_WORD	324206	wordpools/wasnorm_wordpool.txt	LTP132	ltpFR	3	2	1	CURB	426	n/a	0	n/a	n/a	n/a	n/a	n/a
673.644	n/a	REC_WORD	336822	wordpools/wasnorm_wordpool.txt	LTP132	ltpFR	3	2	0	ALBUM	14	n/a	0	n/a	n/a	n/a	n/a	n/a
690.406	n/a	WORD	345203	wordpools/wasnorm_wordpool.txt	LTP132	ltpFR	3	3	1	RANCH	1166	n/a	0	0	0.5869140625	0.422607421875	lower	../fonts/amplitud.ttf
694.442	n/a	WORD	347221	wordpools/wasnorm_wordpool.txt	LTP132	ltpFR	3	3	1	STALLION	1369	n/a	1	0	0.5869140625	0.422607421875	lower	../fonts/amplitud.ttf
698.354	n/a	WORD	349177	wordpools/wasnorm_wordpool.txt	LTP132	ltpFR	3	3	1	SPARROW	1347	n/a	1	0	0.5869140625	0.422607421875	lower	../fonts/amplitud.ttf
702.268	n/a	WORD	351134	wordpools/wasnorm_wordpool.txt	LTP132	ltpFR	3	3	1	FLY	586	n/a	1	0	0.5869140625	0.422607421875	lower	../fonts/amplitud.ttf
706.222	n/a	WORD	353111	wordpools/wasnorm_wordpool.txt	LTP132	ltpFR	3	3	1	WILDERNESS	1610	n/a	0	0	0.5869140625	0.422607421875	lower	../fonts/amplitud.ttf
710.326	n/a	WORD	355163	wordpools/wasnorm_wordpool.txt	LTP132	ltpFR	3	3	1	WINDSHIELD	1612	n/a	0	0	0.5869140625	0.422607421875	lower	../fonts/amplitud.ttf
714.262	n/a	WORD	357131	wordpools/wasnorm_wordpool.txt	LTP132	ltpFR	3	3	1	DRIVEWAY	500	n/a	0	0	0.5869140625	0.422607421875	lower	../fonts/amplitud.ttf
718.148	n/a	WORD	359074	wordpools/wasnorm_wordpool.txt	LTP132	ltpFR	3	3	1	ALLIGATOR	16	n/a	1	0	0.5869140625	0.422607421875	lower	../fonts/amplitud.ttf
722.228	n/a	WORD	361114	wordpools/wasnorm_wordpool.txt	LTP132	ltpFR	3	3	1	DRIVER	499	n/a	1	0	0.5869140625	0.422607421875	lower	../fonts/amplitud.ttf
726.156	n/a	WORD	363078	wordpools/wasnorm_wordpool.txt	LTP132	ltpFR	3	3	1	TWINE	1529	n/a	0	0	0.5869140625	0.422607421875	lower	../fonts/amplitud.ttf
730.068	n/a	WORD	365034	wordpools/wasnorm_wordpool.txt	LTP132	ltpFR	3	3	1	DIVER	476	n/a	1	0	0.5869140625	0.422607421875	lower	../fonts/amplitud.ttf
733.964	n/a	WORD	366982	wordpools/wasnorm_wordpool.txt	LTP132	ltpFR	3	3	1	TICKET	1464	n/a	0	0	0.5869140625	0.422607421875	lower	../fonts/amplitud.ttf
738.092	n/a	WORD	369046	wordpools/wasnorm_wordpool.txt	LTP132	ltpFR	3	3	1	ROAD	1196	n/a	0	0	0.5869140625	0.422607421875	lower	../fonts/amplitud.ttf
742.272	n/a	WORD	371136	wordpools/wasnorm_wordpool.txt	LTP132	ltpFR	3	3	1	MOOSE	915	n/a	1	0	0.5869140625	0.422607421875	lower	../fonts/amplitud.ttf
746.1	n/a	WORD	373050	wordpools/wasnorm_wordpool.txt	LTP132	ltpFR	3	3	1	GROCERIES	663	n/a	0	0	0.5869140625	0.422607421875	lower	../fonts/amplitud.ttf
750.07	n/a	WORD	375035	wordpools/wasnorm_wordpool.txt	LTP132	ltpFR	3	3	1	WAITER	1580	n/a	1	0	0.5869140625	0.422607421875	lower	../fonts/amplitud.ttf
756.138	n/a	REC_START	378069	n/a	LTP132	ltpFR	3	3	n/a	n/a	n/a	n/a	n/a	n/a	n/a	n/a	n/a	n/a
756.662	n/a	REC_WORD	378331	wordpools/wasnorm_wordpool.txt	LTP132	ltpFR	3	3	1	WAITER	1580	n/a	1	n/a	n/a	n/a	n/a	n/a
757.48	n/a	REC_WORD	378740	wordpools/wasnorm_wordpool.txt	LTP132	ltpFR	3	3	1	GROCERIES	663	n/a	0	n/a	n/a	n/a	n/a	n/a
758.518	n/a	REC_WORD	379259	wordpools/wasnorm_wordpool.txt	LTP132	ltpFR	3	3	1	DIVER	476	n/a	1	n/a	n/a	n/a	n/a	n/a
759.35	n/a	REC_WORD	379675	wordpools/wasnorm_wordpool.txt	LTP132	ltpFR	3	3	1	DRIVEWAY	500	n/a	0	n/a	n/a	n/a	n/a	n/a
760.518	n/a	REC_WORD	380259	wordpools/wasnorm_wordpool.txt	LTP132	ltpFR	3	3	1	DRIVER	499	n/a	1	n/a	n/a	n/a	n/a	n/a
768.2	n/a	REC_WORD	384100	wordpools/wasnorm_wordpool.txt	LTP132	ltpFR	3	3	1	STALLION	1369	n/a	1	n/a	n/a	n/a	n/a	n/a
769.308	n/a	REC_WORD	384654	wordpools/wasnorm_wordpool.txt	LTP132	ltpFR	3	3	1	RANCH	1166	n/a	0	n/a	n/a	n/a	n/a	n/a
771.728	n/a	REC_WORD	385864	wordpools/wasnorm_wordpool.txt	LTP132	ltpFR	3	3	1	FLY	586	n/a	1	n/a	n/a	n/a	n/a	n/a
776.852	n/a	REC_WORD	388426	wordpools/wasnorm_wordpool.txt	LTP132	ltpFR	3	3	1	ALLIGATOR	16	n/a	1	n/a	n/a	n/a	n/a	n/a
778.368	n/a	REC_WORD	389184	wordpools/wasnorm_wordpool.txt	LTP132	ltpFR	3	3	1	TWINE	1529	n/a	0	n/a	n/a	n/a	n/a	n/a
792.258	n/a	REC_WORD	396129	wordpools/wasnorm_wordpool.txt	LTP132	ltpFR	3	3	1	MOOSE	915	n/a	1	n/a	n/a	n/a	n/a	n/a
841.074	n/a	WORD	420537	wordpools/wasnorm_wordpool.txt	LTP132	ltpFR	3	4	1	EMPEROR	529	n/a	1	0	0.5869140625	0.422607421875	lower	../fonts/amplitud.ttf
845.204	n/a	WORD	422602	wordpools/wasnorm_wordpool.txt	LTP132	ltpFR	3	4	1	SKI	1316	n/a	0	0	0.5869140625	0.422607421875	lower	../fonts/amplitud.ttf
849.056	n/a	WORD	424528	wordpools/wasnorm_wordpool.txt	LTP132	ltpFR	3	4	1	COB	334	n/a	0	0	0.5869140625	0.422607421875	lower	../fonts/amplitud.ttf
852.876	n/a	WORD	426438	wordpools/wasnorm_wordpool.txt	LTP132	ltpFR	3	4	1	SEAFOOD	1260	n/a	0	0	0.5869140625	0.422607421875	lower	../fonts/amplitud.ttf
856.956	n/a	WORD	428478	wordpools/wasnorm_wordpool.txt	LTP132	ltpFR	3	4	1	PILL	1068	n/a	0	0	0.5869140625	0.422607421875	lower	../fonts/amplitud.ttf
861.068	n/a	WORD	430534	wordpools/wasnorm_wordpool.txt	LTP132	ltpFR	3	4	1	VITAMIN	1574	n/a	0	0	0.5869140625	0.422607421875	lower	../fonts/amplitud.ttf
865.23	n/a	WORD	432615	wordpools/wasnorm_wordpool.txt	LTP132	ltpFR	3	4	1	SPONGE	1355	n/a	0	0	0.5869140625	0.422607421875	lower	../fonts/amplitud.ttf
869.384	n/a	WORD	434692	wordpools/wasnorm_wordpool.txt	LTP132	ltpFR	3	4	1	BURGLAR	200	n/a	1	0	0.5869140625	0.422607421875	lower	../fonts/amplitud.ttf
873.438	n/a	WORD	436719	wordpools/wasnorm_wordpool.txt	LTP132	ltpFR	3	4	1	PLASTER	1085	n/a	0	0	0.5869140625	0.422607421875	lower	../fonts/amplitud.ttf
877.334	n/a	WORD	438667	wordpools/wasnorm_wordpool.txt	LTP132	ltpFR	3	4	1	LOBSTER	837	n/a	1	0	0.5869140625	0.422607421875	lower	../fonts/amplitud.ttf
881.222	n/a	WORD	440611	wordpools/wasnorm_wordpool.txt	LTP132	ltpFR	3	4	1	DRESSER	496	n/a	0	0	0.5869140625	0.422607421875	lower	../fonts/amplitud.ttf
885.09	n/a	WORD	442545	wordpools/wasnorm_wordpool.txt	LTP132	ltpFR	3	4	1	RAZOR	1171	n/a	0	0	0.5869140625	0.422607421875	lower	../fonts/amplitud.ttf
889.296	n/a	WORD	444648	wordpools/wasnorm_wordpool.txt	LTP132	ltpFR	3	4	1	POND	1101	n/a	0	0	0.5869140625	0.422607421875	lower	../fonts/amplitud.ttf
893.432	n/a	WORD	446716	wordpools/wasnorm_wordpool.txt	LTP132	ltpFR	3	4	1	AGENT	10	n/a	1	0	0.5869140625	0.422607421875	lower	../fonts/amplitud.ttf
897.502	n/a	WORD	448751	wordpools/wasnorm_wordpool.txt	LTP132	ltpFR	3	4	1	DETECTIVE	454	n/a	1	0	0.5869140625	0.422607421875	lower	../fonts/amplitud.ttf
901.522	n/a	WORD	450761	wordpools/wasnorm_wordpool.txt	LTP132	ltpFR	3	4	1	SUSPECT	1415	n/a	0	0	0.5869140625	0.422607421875	lower	../fonts/amplitud.ttf
907.334	n/a	REC_START	453667	n/a	LTP132	ltpFR	3	4	n/a	n/a	n/a	n/a	n/a	n/a	n/a	n/a	n/a	n/a
908.182	n/a	REC_WORD	454091	wordpools/wasnorm_wordpool.txt	LTP132	ltpFR	3	4	1	AGENT	10	n/a	1	n/a	n/a	n/a	n/a	n/a
908.824	n/a	REC_WORD	454412	wordpools/wasnorm_wordpool.txt	LTP132	ltpFR	3	4	1	DETECTIVE	454	n/a	1	n/a	n/a	n/a	n/a	n/a
909.798	n/a	REC_WORD	454899	wordpools/wasnorm_wordpool.txt	LTP132	ltpFR	3	4	1	SUSPECT	1415	n/a	0	n/a	n/a	n/a	n/a	n/a
912.836	n/a	REC_WORD	456418	wordpools/wasnorm_wordpool.txt	LTP132	ltpFR	3	4	1	DRESSER	496	n/a	0	n/a	n/a	n/a	n/a	n/a
914.946	n/a	REC_WORD	457473	wordpools/wasnorm_wordpool.txt	LTP132	ltpFR	3	4	1	VITAMIN	1574	n/a	0	n/a	n/a	n/a	n/a	n/a
915.938	n/a	REC_WORD	457969	wordpools/wasnorm_wordpool.txt	LTP132	ltpFR	3	4	1	PILL	1068	n/a	0	n/a	n/a	n/a	n/a	n/a
939.564	n/a	REC_WORD	469782	wordpools/wasnorm_wordpool.txt	LTP132	ltpFR	3	4	1	SEAFOOD	1260	n/a	0	n/a	n/a	n/a	n/a	n/a
940.688	n/a	REC_WORD	470344	wordpools/wasnorm_wordpool.txt	LTP132	ltpFR	3	4	1	LOBSTER	837	n/a	1	n/a	n/a	n/a	n/a	n/a
943.39	n/a	REC_WORD	471695	wordpools/wasnorm_wordpool.txt	LTP132	ltpFR	3	4	1	SKI	1316	n/a	0	n/a	n/a	n/a	n/a	n/a
1000.608	n/a	WORD	500304	wordpools/wasnorm_wordpool.txt	LTP132	ltpFR	3	5	1	STOVE	1388	n/a	0	0	0.5869140625	0.422607421875	lower	../fonts/amplitud.ttf
1004.752	n/a	WORD	502376	wordpools/wasnorm_wordpool.txt	LTP132	ltpFR	3	5	1	GANGSTER	620	n/a	1	0	0.5869140625	0.422607421875	lower	../fonts/amplitud.ttf
1008.814	n/a	WORD	504407	wordpools/wasnorm_wordpool.txt	LTP132	ltpFR	3	5	0	INTESTINE	742	n/a	0	1	0.412841796875	0.57763671875	upper	../fonts/zerothre.ttf
1013.01	n/a	WORD	506505	wordpools/wasnorm_wordpool.txt	LTP132	ltpFR	3	5	0	TWIN	1528	n/a	1	1	0.412841796875	0.57763671875	upper	../fonts/zerothre.ttf
1017.056	n/a	WORD	508528	wordpools/wasnorm_wordpool.txt	LTP132	ltpFR	3	5	0	SOAP	1337	n/a	0	1	0.412841796875	0.57763671875	upper	../fonts/zerothre.ttf
1020.992	n/a	WORD	510496	wordpools/wasnorm_wordpool.txt	LTP132	ltpFR	3	5	0	TIDE	1465	n/a	0	1	0.412841796875	0.57763671875	upper	../fonts/zerothre.ttf
1024.904	n/a	WORD	512452	wordpools/wasnorm_wordpool.txt	LTP132	ltpFR	3	5	0	PISTOL	1075	n/a	0	1	0.412841796875	0.57763671875	upper	../fonts/zerothre.ttf
1028.834	n/a	WORD	514417	wordpools/wasnorm_wordpool.txt	LTP132	ltpFR	3	5	0	WASHER	1592	n/a	1	1	0.412841796875	0.57763671875	upper	../fonts/zerothre.ttf
1032.696	n/a	WORD	516348	wordpools/wasnorm_wordpool.txt	LTP132	ltpFR	3	5	1	BARTENDER	92	n/a	1	0	0.5869140625	0.422607421875	lower	../fonts/amplitud.ttf
1036.692	n/a	WORD	518346	wordpools/wasnorm_wordpool.txt	LTP132	ltpFR	3	5	1	THORN	1459	n/a	0	0	0.5869140625	0.422607421875	lower	../fonts/amplitud.ttf
1040.746	n/a	WORD	520373	wordpools/wasnorm_wordpool.txt	LTP132	ltpFR	3	5	1	TULIP	1517	n/a	0	0	0.5869140625	0.422607421875	lower	../fonts/amplitud.ttf
1044.592	n/a	WORD	522296	wordpools/wasnorm_wordpool.txt	LTP132	ltpFR	3	5	1	CANARY	227	n/a	1	0	0.5869140625	0.422607421875	lower	../fonts/amplitud.ttf
1048.404	n/a	WORD	524202	wordpools/wasnorm_wordpool.txt	LTP132	ltpFR	3	5	0	DOVE	491	n/a	0	1	0.412841796875	0.57763671875	upper	../fonts/zerothre.ttf
1052.458	n/a	WORD	526229	wordpools/wasnorm_wordpool.txt	LTP132	ltpFR	3	5	0	STOMACH	1384	n/a	1	1	0.412841796875	0.57763671875	upper	../fonts/zerothre.ttf
1056.494	n/a	WORD	528247	wordpools/wasnorm_wordpool.txt	LTP132	ltpFR	3	5	1	FRIAR	605	n/a	1	0	0.5869140625	0.422607421875	lower	../fonts/amplitud.ttf
1060.614	n/a	WORD	530307	wordpools/wasnorm_wordpool.txt	LTP132	ltpFR	3	5	1	JURY	766	n/a	1	0	0.5869140625	0.422607421875	lower	../fonts/amplitud.ttf
1066.334	n/a	REC_START	533167	n/a	LTP132	ltpFR	3	5	n/a	n/a	n/a	n/a	n/a	n/a	n/a	n/a	n/a	n/a
1066.982	n/a	REC_WORD	533491	wordpools/wasnorm_wordpool.txt	LTP132	ltpFR	3	5	1	FRIAR	605	n/a	1	n/a	n/a	n/a	n/a	n/a
1068.01	n/a	REC_WORD	534005	wordpools/wasnorm_wordpool.txt	LTP132	ltpFR	3	5	1	JURY	766	n/a	1	n/a	n/a	n/a	n/a	n/a
1069.034	n/a	REC_WORD	534517	wordpools/wasnorm_wordpool.txt	LTP132	ltpFR	3	5	0	TWIN	1528	n/a	1	n/a	n/a	n/a	n/a	n/a
1076.416	n/a	REC_WORD	538208	wordpools/wasnorm_wordpool.txt	LTP132	ltpFR	3	5	1	GANGSTER	620	n/a	1	n/a	n/a	n/a	n/a	n/a
1083.096	n/a	REC_WORD	541548	wordpools/wasnorm_wordpool.txt	LTP132	ltpFR	3	5	1	STOVE	1388	n/a	0	n/a	n/a	n/a	n/a	n/a
1085.086	n/a	REC_WORD	542543	wordpools/wasnorm_wordpool.txt	LTP132	ltpFR	3	5	0	WASHER	1592	n/a	1	n/a	n/a	n/a	n/a	n/a
1101.504	n/a	REC_WORD	550752	wordpools/wasnorm_wordpool.txt	LTP132	ltpFR	3	5	1	TULIP	1517	n/a	0	n/a	n/a	n/a	n/a	n/a
1102.108	n/a	REC_WORD	551054	wordpools/wasnorm_wordpool.txt	LTP132	ltpFR	3	5	1	THORN	1459	n/a	0	n/a	n/a	n/a	n/a	n/a
1119.2	n/a	REC_WORD	559600	wordpools/wasnorm_wordpool.txt	LTP132	ltpFR	3	5	0	ORGAN	984	n/a	0	n/a	n/a	n/a	n/a	n/a
1120.786	n/a	REC_WORD	560393	wordpools/wasnorm_wordpool.txt	LTP132	ltpFR	3	5	0	STOMACH	1384	n/a	1	n/a	n/a	n/a	n/a	n/a
1121.694	n/a	REC_WORD	560847	wordpools/wasnorm_wordpool.txt	LTP132	ltpFR	3	5	0	INTESTINE	742	n/a	0	n/a	n/a	n/a	n/a	n/a
1145.65	n/a	WORD	572825	wordpools/wasnorm_wordpool.txt	LTP132	ltpFR	3	6	-1	SPRINKLE	1359	n/a	-1	1	1.0	1.0	upper	../fonts/Verdana.ttf
1149.554	n/a	WORD	574777	wordpools/wasnorm_wordpool.txt	LTP132	ltpFR	3	6	-1	LIGHTNING	820	n/a	-1	1	1.0	1.0	upper	../fonts/Verdana.ttf
1153.708	n/a	WORD	576854	wordpools/wasnorm_wordpool.txt	LTP132	ltpFR	3	6	-1	CHIEF	298	n/a	-1	1	1.0	1.0	upper	../fonts/Verdana.ttf
1157.628	n/a	WORD	578814	wordpools/wasnorm_wordpool.txt	LTP132	ltpFR	3	6	-1	SOCKET	1340	n/a	-1	1	1.0	1.0	upper	../fonts/Verdana.ttf
1161.466	n/a	WORD	580733	wordpools/wasnorm_wordpool.txt	LTP132	ltpFR	3	6	-1	CHAUFFEUR	283	n/a	-1	1	1.0	1.0	upper	../fonts/Verdana.ttf
1165.278	n/a	WORD	582639	wordpools/wasnorm_wordpool.txt	LTP132	ltpFR	3	6	-1	TUXEDO	1525	n/a	-1	1	1.0	1.0	upper	../fonts/Verdana.ttf
1169.256	n/a	WORD	584628	wordpools/wasnorm_wordpool.txt	LTP132	ltpFR	3	6	-1	SOLDIER	1344	n/a	-1	1	1.0	1.0	upper	../fonts/Verdana.ttf
1173.27	n/a	WORD	586635	wordpools/wasnorm_wordpool.txt	LTP132	ltpFR	3	6	-1	NIECE	952	n/a	-1	1	1.0	1.0	upper	../fonts/Verdana.ttf
1177.44	n/a	WORD	588720	wordpools/wasnorm_wordpool.txt	LTP132	ltpFR	3	6	-1	SUIT	1402	n/a	-1	1	1.0	1.0	upper	../fonts/Verdana.ttf
1181.616	n/a	WORD	590808	wordpools/wasnorm_wordpool.txt	LTP132	ltpFR	3	6	-1	UNDERWEAR	1537	n/a	-1	1	1.0	1.0	upper	../fonts/Verdana.ttf
1185.704	n/a	WORD	592852	wordpools/wasnorm_wordpool.txt	LTP132	ltpFR	3	6	-1	SHOELACE	1289	n/a	-1	1	1.0	1.0	upper	../fonts/Verdana.ttf
1189.558	n/a	WORD	594779	wordpools/wasnorm_wordpool.txt	LTP132	ltpFR	3	6	-1	COURT	391	n/a	-1	1	1.0	1.0	upper	../fonts/Verdana.ttf
1193.47	n/a	WORD	596735	wordpools/wasnorm_wordpool.txt	LTP132	ltpFR	3	6	-1	GAVEL	627	n/a	-1	1	1.0	1.0	upper	../fonts/Verdana.ttf
1197.59	n/a	WORD	598795	wordpools/wasnorm_wordpool.txt	LTP132	ltpFR	3	6	-1	CAB	209	n/a	-1	1	1.0	1.0	upper	../fonts/Verdana.ttf
1201.71	n/a	WORD	600855	wordpools/wasnorm_wordpool.txt	LTP132	ltpFR	3	6	-1	HALL	677	n/a	-1	1	1.0	1.0	upper	../fonts/Verdana.ttf
1205.632	n/a	WORD	602816	wordpools/wasnorm_wordpool.txt	LTP132	ltpFR	3	6	-1	KING	777	n/a	-1	1	1.0	1.0	upper	../fonts/Verdana.ttf
1211.442	n/a	REC_START	605721	n/a	LTP132	ltpFR	3	6	n/a	n/a	n/a	n/a	n/a	n/a	n/a	n/a	n/a	n/a
1211.872	n/a	REC_WORD	605936	wordpools/wasnorm_wordpool.txt	LTP132	ltpFR	3	6	-1	COURT	391	n/a	-1	n/a	n/a	n/a	n/a	n/a
1212.604	n/a	REC_WORD	606302	wordpools/wasnorm_wordpool.txt	LTP132	ltpFR	3	6	-1	GAVEL	627	n/a	-1	n/a	n/a	n/a	n/a	n/a
1213.222	n/a	REC_WORD	606611	wordpools/wasnorm_wordpool.txt	LTP132	ltpFR	3	6	-1	HALL	677	n/a	-1	n/a	n/a	n/a	n/a	n/a
1214.14	n/a	REC_WORD	607070	wordpools/wasnorm_wordpool.txt	LTP132	ltpFR	3	6	-1	KING	777	n/a	-1	n/a	n/a	n/a	n/a	n/a
1216.43	n/a	REC_WORD	608215	wordpools/wasnorm_wordpool.txt	LTP132	ltpFR	3	6	-1	SPRINKLE	1359	n/a	-1	n/a	n/a	n/a	n/a	n/a
1220.632	n/a	REC_WORD	610316	wordpools/wasnorm_wordpool.txt	LTP132	ltpFR	3	6	-1	CHIEF	298	n/a	-1	n/a	n/a	n/a	n/a	n/a
1296.296	n/a	WORD	648148	wordpools/wasnorm_wordpool.txt	LTP132	ltpFR	3	7	-1	RAT	1169	n/a	-1	1	1.0	1.0	upper	../fonts/Verdana.ttf
1300.156	n/a	WORD	650078	wordpools/wasnorm_wordpool.txt	LTP132	ltpFR	3	7	-1	APRON	35	n/a	-1	1	1.0	1.0	upper	../fonts/Verdana.ttf
1304.01	n/a	WORD	652005	wordpools/wasnorm_wordpool.txt	LTP132	ltpFR	3	7	-1	PAGE	1001	n/a	-1	1	1.0	1.0	upper	../fonts/Verdana.ttf
1308.038	n/a	WORD	654019	wordpools/wasnorm_wordpool.txt	LTP132	ltpFR	3	7	-1	NOVEL	960	n/a	-1	1	1.0	1.0	upper	../fonts/Verdana.ttf
1311.918	n/a	WORD	655959	wordpools/wasnorm_wordpool.txt	LTP132	ltpFR	3	7	-1	FOLLOWER	589	n/a	-1	1	1.0	1.0	upper	../fonts/Verdana.ttf
1315.796	n/a	WORD	657898	wordpools/wasnorm_wordpool.txt	LTP132	ltpFR	3	7	-1	CRACKER	398	n/a	-1	1	1.0	1.0	upper	../fonts/Verdana.ttf
1319.626	n/a	WORD	659813	wordpools/wasnorm_wordpool.txt	LTP132	ltpFR	3	7	-1	OVEN	991	n/a	-1	1	1.0	1.0	upper	../fonts/Verdana.ttf
1323.504	n/a	WORD	661752	wordpools/wasnorm_wordpool.txt	LTP132	ltpFR	3	7	-1	CHARCOAL	281	n/a	-1	1	1.0	1.0	upper	../fonts/Verdana.ttf
1327.574	n/a	WORD	663787	wordpools/wasnorm_wordpool.txt	LTP132	ltpFR	3	7	-1	BULB	192	n/a	-1	1	1.0	1.0	upper	../fonts/Verdana.ttf
1331.594	n/a	WORD	665797	wordpools/wasnorm_wordpool.txt	LTP132	ltpFR	3	7	-1	BIBLE	124	n/a	-1	1	1.0	1.0	upper	../fonts/Verdana.ttf
1335.424	n/a	WORD	667712	wordpools/wasnorm_wordpool.txt	LTP132	ltpFR	3	7	-1	BEAVER	109	n/a	-1	1	1.0	1.0	upper	../fonts/Verdana.ttf
1339.568	n/a	WORD	669784	wordpools/wasnorm_wordpool.txt	LTP132	ltpFR	3	7	-1	SHACK	1273	n/a	-1	1	1.0	1.0	upper	../fonts/Verdana.ttf
1343.68	n/a	WORD	671840	wordpools/wasnorm_wordpool.txt	LTP132	ltpFR	3	7	-1	TRICYCLE	1506	n/a	-1	1	1.0	1.0	upper	../fonts/Verdana.ttf
1347.71	n/a	WORD	673855	wordpools/wasnorm_wordpool.txt	LTP132	ltpFR	3	7	-1	CAPTAIN	239	n/a	-1	1	1.0	1.0	upper	../fonts/Verdana.ttf
1351.604	n/a	WORD	675802	wordpools/wasnorm_wordpool.txt	LTP132	ltpFR	3	7	-1	OCEAN	970	n/a	-1	1	1.0	1.0	upper	../fonts/Verdana.ttf
1355.6	n/a	WORD	677800	wordpools/wasnorm_wordpool.txt	LTP132	ltpFR	3	7	-1	BROOK	177	n/a	-1	1	1.0	1.0	upper	../fonts/Verdana.ttf
1361.602	n/a	REC_START	680801	n/a	LTP132	ltpFR	3	7	n/a	n/a	n/a	n/a	n/a	n/a	n/a	n/a	n/a	n/a
1362.3	n/a	REC_WORD	681150	wordpools/wasnorm_wordpool.txt	LTP132	ltpFR	3	7	-1	OCEAN	970	n/a	-1	n/a	n/a	n/a	n/a	n/a
1363.198	n/a	REC_WORD	681599	wordpools/wasnorm_wordpool.txt	LTP132	ltpFR	3	7	-1	BROOK	177	n/a	-1	n/a	n/a	n/a	n/a	n/a
1364.156	n/a	REC_WORD	682078	wordpools/wasnorm_wordpool.txt	LTP132	ltpFR	3	7	-1	NOVEL	960	n/a	-1	n/a	n/a	n/a	n/a	n/a
1365.0	n/a	REC_WORD	682500	wordpools/wasnorm_wordpool.txt	LTP132	ltpFR	3	7	-1	FOLLOWER	589	n/a	-1	n/a	n/a	n/a	n/a	n/a
1375.636	n/a	REC_WORD	687818	wordpools/wasnorm_wordpool.txt	LTP132	ltpFR	3	7	-1	RAT	1169	n/a	-1	n/a	n/a	n/a	n/a	n/a
1377.242	n/a	REC_WORD	688621	wordpools/wasnorm_wordpool.txt	LTP132	ltpFR	3	7	-1	PAGE	1001	n/a	-1	n/a	n/a	n/a	n/a	n/a
1403.872	n/a	REC_WORD	701936	wordpools/wasnorm_wordpool.txt	LTP132	ltpFR	3	7	-1	CHARCOAL	281	n/a	-1	n/a	n/a	n/a	n/a	n/a
1444.54	n/a	WORD	722270	wordpools/wasnorm_wordpool.txt	LTP132	ltpFR	3	8	0	PICKLE	1059	n/a	0	1	0.412841796875	0.57763671875	upper	../fonts/zerothre.ttf
1448.512	n/a	WORD	724256	wordpools/wasnorm_wordpool.txt	LTP132	ltpFR	3	8	0	DRUM	502	n/a	1	1	0.412841796875	0.57763671875	upper	../fonts/zerothre.ttf
1452.358	n/a	WORD	726179	wordpools/wasnorm_wordpool.txt	LTP132	ltpFR	3	8	0	CHIMNEY	301	n/a	1	1	0.412841796875	0.57763671875	upper	../fonts/zerothre.ttf
1456.552	n/a	WORD	728276	wordpools/wasnorm_wordpool.txt	LTP132	ltpFR	3	8	0	POCKET	1093	n/a	0	1	0.412841796875	0.57763671875	upper	../fonts/zerothre.ttf
1460.54	n/a	WORD	730270	wordpools/wasnorm_wordpool.txt	LTP132	ltpFR	3	8	0	CHIP	303	n/a	0	1	0.412841796875	0.57763671875	upper	../fonts/zerothre.ttf
1464.444	n/a	WORD	732222	wordpools/wasnorm_wordpool.txt	LTP132	ltpFR	3	8	0	CELLO	268	n/a	1	1	0.412841796875	0.57763671875	upper	../fonts/zerothre.ttf
1468.39	n/a	WORD	734195	wordpools/wasnorm_wordpool.txt	LTP132	ltpFR	3	8	0	PIGMENT	1066	n/a	0	1	0.412841796875	0.57763671875	upper	../fonts/zerothre.ttf
1472.492	n/a	WORD	736246	wordpools/wasnorm_wordpool.txt	LTP132	ltpFR	3	8	0	SNORKEL	1336	n/a	0	1	0.412841796875	0.57763671875	upper	../fonts/zerothre.ttf
1476.528	n/a	WORD	738264	wordpools/wasnorm_wordpool.txt	LTP132	ltpFR	3	8	0	PIER	1063	n/a	1	1	0.412841796875	0.57763671875	upper	../fonts/zerothre.ttf
1480.368	n/a	WORD	740184	wordpools/wasnorm_wordpool.txt	LTP132	ltpFR	3	8	0	PIKE	1067	n/a	1	1	0.412841796875	0.57763671875	upper	../fonts/zerothre.ttf
1484.412	n/a	WORD	742206	wordpools/wasnorm_wordpool.txt	LTP132	ltpFR	3	8	0	PAINT	1003	n/a	0	1	0.412841796875	0.57763671875	upper	../fonts/zerothre.ttf
1488.498	n/a	WORD	744249	wordpools/wasnorm_wordpool.txt	LTP132	ltpFR	3	8	0	SUBWAY	1400	n/a	1	1	0.412841796875	0.57763671875	upper	../fonts/zerothre.ttf
1492.394	n/a	WORD	746197	wordpools/wasnorm_wordpool.txt	LTP132	ltpFR	3	8	0	ASTEROID	50	n/a	1	1	0.412841796875	0.57763671875	upper	../fonts/zerothre.ttf
1496.466	n/a	WORD	748233	wordpools/wasnorm_wordpool.txt	LTP132	ltpFR	3	8	0	STAR	1373	n/a	0	1	0.412841796875	0.57763671875	upper	../fonts/zerothre.ttf
1500.294	n/a	WORD	750147	wordpools/wasnorm_wordpool.txt	LTP132	ltpFR	3	8	0	MARKER	870	n/a	0	1	0.412841796875	0.57763671875	upper	../fonts/zerothre.ttf
1504.222	n/a	WORD	752111	wordpools/wasnorm_wordpool.txt	LTP132	ltpFR	3	8	0	TANK	1432	n/a	1	1	0.412841796875	0.57763671875	upper	../fonts/zerothre.ttf
1509.95	n/a	REC_START	754975	n/a	LTP132	ltpFR	3	8	n/a	n/a	n/a	n/a	n/a	n/a	n/a	n/a	n/a	n/a
1510.398	n/a	REC_WORD	755199	wordpools/wasnorm_wordpool.txt	LTP132	ltpFR	3	8	0	STAR	1373	n/a	0	n/a	n/a	n/a	n/a	n/a
1511.262	n/a	REC_WORD	755631	wordpools/wasnorm_wordpool.txt	LTP132	ltpFR	3	8	0	MARKER	870	n/a	0	n/a	n/a	n/a	n/a	n/a
1512.168	n/a	REC_WORD	756084	wordpools/wasnorm_wordpool.txt	LTP132	ltpFR	3	8	0	PIGMENT	1066	n/a	0	n/a	n/a	n/a	n/a	n/a
1513.068	n/a	REC_WORD	756534	wordpools/wasnorm_wordpool.txt	LTP132	ltpFR	3	8	0	TANK	1432	n/a	1	n/a	n/a	n/a	n/a	n/a
1517.896	n/a	REC_WORD	758948	wordpools/wasnorm_wordpool.txt	LTP132	ltpFR	3	8	0	PICKLE	1059	n/a	0	n/a	n/a	n/a	n/a	n/a
1518.75	n/a	REC_WORD	759375	wordpools/wasnorm_wordpool.txt	LTP132	ltpFR	3	8	0	CHIP	303	n/a	0	n/a	n/a	n/a	n/a	n/a
1519.462	n/a	REC_WORD	759731	wordpools/wasnorm_wordpool.txt	LTP132	ltpFR	3	8	0	SUBWAY	1400	n/a	1	n/a	n/a	n/a	n/a	n/a
1526.476	n/a	REC_WORD	763238	wordpools/wasnorm_wordpool.txt	LTP132	ltpFR	3	8	0	ASTEROID	50	n/a	1	n/a	n/a	n/a	n/a	n/a
1528.182	n/a	REC_WORD	764091	wordpools/wasnorm_wordpool.txt	LTP132	ltpFR	3	8	0	CELLO	268	n/a	1	n/a	n/a	n/a	n/a	n/a
1556.264	n/a	REC_WORD	778132	wordpools/wasnorm_wordpool.txt	LTP132	ltpFR	3	8	1	SANDWICH	1232	n/a	0	n/a	n/a	n/a	n/a	n/a
1595.858	n/a	WORD	797929	wordpools/wasnorm_wordpool.txt	LTP132	ltpFR	3	9	0	LOCK	838	n/a	0	1	0.412841796875	0.57763671875	upper	../fonts/zerothre.ttf
1599.846	n/a	WORD	799923	wordpools/wasnorm_wordpool.txt	LTP132	ltpFR	3	9	0	PEARL	1034	n/a	0	1	0.412841796875	0.57763671875	upper	../fonts/zerothre.ttf
1603.8	n/a	WORD	801900	wordpools/wasnorm_wordpool.txt	LTP132	ltpFR	3	9	1	DENTIST	447	n/a	1	0	0.5869140625	0.422607421875	lower	../fonts/amplitud.ttf
1607.686	n/a	WORD	803843	wordpools/wasnorm_wordpool.txt	LTP132	ltpFR	3	9	1	BEAD	103	n/a	0	0	0.5869140625	0.422607421875	lower	../fonts/amplitud.ttf
1611.64	n/a	WORD	805820	wordpools/wasnorm_wordpool.txt	LTP132	ltpFR	3	9	1	GEM	629	n/a	0	0	0.5869140625	0.422607421875	lower	../fonts/amplitud.ttf
1615.47	n/a	WORD	807735	wordpools/wasnorm_wordpool.txt	LTP132	ltpFR	3	9	1	HAMMOCK	681	n/a	0	0	0.5869140625	0.422607421875	lower	../fonts/amplitud.ttf
1619.458	n/a	WORD	809729	wordpools/wasnorm_wordpool.txt	LTP132	ltpFR	3	9	0	FIREMAN	569	n/a	1	1	0.412841796875	0.57763671875	upper	../fonts/zerothre.ttf
1623.312	n/a	WORD	811656	wordpools/wasnorm_wordpool.txt	LTP132	ltpFR	3	9	0	LAKE	796	n/a	1	1	0.412841796875	0.57763671875	upper	../fonts/zerothre.ttf
1627.156	n/a	WORD	813578	wordpools/wasnorm_wordpool.txt	LTP132	ltpFR	3	9	0	BUG	187	n/a	0	1	0.412841796875	0.57763671875	upper	../fonts/zerothre.ttf
1631.294	n/a	WORD	815647	wordpools/wasnorm_wordpool.txt	LTP132	ltpFR	3	9	0	GIRL	637	n/a	1	1	0.412841796875	0.57763671875	upper	../fonts/zerothre.ttf
1635.348	n/a	WORD	817674	wordpools/wasnorm_wordpool.txt	LTP132	ltpFR	3	9	0	CHAIR	274	n/a	0	1	0.412841796875	0.57763671875	upper	../fonts/zerothre.ttf
1639.434	n/a	WORD	819717	wordpools/wasnorm_wordpool.txt	LTP132	ltpFR	3	9	0	BUTTERFLY	206	n/a	0	1	0.412841796875	0.57763671875	upper	../fonts/zerothre.ttf
1643.256	n/a	WORD	821628	wordpools/wasnorm_wordpool.txt	LTP132	ltpFR	3	9	1	BARN	89	n/a	0	0	0.5869140625	0.422607421875	lower	../fonts/amplitud.ttf
1647.124	n/a	WORD	823562	wordpools/wasnorm_wordpool.txt	LTP132	ltpFR	3	9	1	OX	994	n/a	1	0	0.5869140625	0.422607421875	lower	../fonts/amplitud.ttf
1651.012	n/a	WORD	825506	wordpools/wasnorm_wordpool.txt	LTP132	ltpFR	3	9	1	MOTH	920	n/a	1	0	0.5869140625	0.422607421875	lower	../fonts/amplitud.ttf
1655.09	n/a	WORD	827545	wordpools/wasnorm_wordpool.txt	LTP132	ltpFR	3	9	1	ANTEATER	26	n/a	1	0	0.5869140625	0.422607421875	lower	../fonts/amplitud.ttf
1660.776	n/a	REC_START	830388	n/a	LTP132	ltpFR	3	9	n/a	n/a	n/a	n/a	n/a	n/a	n/a	n/a	n/a	n/a
1661.48	n/a	REC_WORD	830740	wordpools/wasnorm_wordpool.txt	LTP132	ltpFR	3	9	1	ANTEATER	26	n/a	1	n/a	n/a	n/a	n/a	n/a
1662.232	n/a	REC_WORD	831116	wordpools/wasnorm_wordpool.txt	LTP132	ltpFR	3	9	1	MOTH	920	n/a	1	n/a	n/a	n/a	n/a	n/a
1663.042	n/a	REC_WORD	831521	wordpools/wasnorm_wordpool.txt	LTP132	ltpFR	3	9	1	OX	994	n/a	1	n/a	n/a	n/a	n/a	n/a
1663.998	n/a	REC_WORD	831999	wordpools/wasnorm_wordpool.txt	LTP132	ltpFR	3	9	1	BARN	89	n/a	0	n/a	n/a	n/a	n/a	n/a
1664.952	n/a	REC_WORD	832476	wordpools/wasnorm_wordpool.txt	LTP132	ltpFR	3	9	0	GIRL	637	n/a	1	n/a	n/a	n/a	n/a	n/a
1665.95	n/a	REC_WORD	832975	wordpools/wasnorm_wordpool.txt	LTP132	ltpFR	3	9	0	FIREMAN	569	n/a	1	n/a	n/a	n/a	n/a	n/a
1667.216	n/a	REC_WORD	833608	wordpools/wasnorm_wordpool.txt	LTP132	ltpFR	3	9	1	BEAD	103	n/a	0	n/a	n/a	n/a	n/a	n/a
1668.1	n/a	REC_WORD	834050	wordpools/wasnorm_wordpool.txt	LTP132	ltpFR	3	9	0	PEARL	1034	n/a	0	n/a	n/a	n/a	n/a	n/a
1669.158	n/a	REC_WORD	834579	wordpools/wasnorm_wordpool.txt	LTP132	ltpFR	3	9	1	GEM	629	n/a	0	n/a	n/a	n/a	n/a	n/a
1674.3	n/a	REC_WORD	837150	wordpools/wasnorm_wordpool.txt	LTP132	ltpFR	3	9	0	LAKE	796	n/a	1	n/a	n/a	n/a	n/a	n/a
1680.052	n/a	REC_WORD	840026	wordpools/wasnorm_wordpool.txt	LTP132	ltpFR	3	9	0	CHAIR	274	n/a	0	n/a	n/a	n/a	n/a	n/a
1701.984	n/a	REC_WORD	850992	wordpools/wasnorm_wordpool.txt	LTP132	ltpFR	3	9	0	BUTTERFLY	206	n/a	0	n/a	n/a	n/a	n/a	n/a
1710.414	n/a	REC_WORD	855207	wordpools/wasnorm_wordpool.txt	LTP132	ltpFR	3	9	0	BUG	187	n/a	0	n/a	n/a	n/a	n/a	n/a
1719.988	n/a	REC_WORD	859994	wordpools/wasnorm_wordpool.txt	LTP132	ltpFR	3	9	1	MOTH	920	n/a	1	n/a	n/a	n/a	n/a	n/a
1725.994	n/a	REC_WORD	862997	wordpools/wasnorm_wordpool.txt	LTP132	ltpFR	3	9	1	ANTEATER	26	n/a	1	n/a	n/a	n/a	n/a	n/a
1746.194	n/a	WORD	873097	wordpools/wasnorm_wordpool.txt	LTP132	ltpFR	3	10	-1	PAD	998	n/a	-1	1	1.0	1.0	upper	../fonts/Verdana.ttf
1750.266	n/a	WORD	875133	wordpools/wasnorm_wordpool.txt	LTP132	ltpFR	3	10	-1	HAYSTACK	694	n/a	-1	1	1.0	1.0	upper	../fonts/Verdana.ttf
1754.352	n/a	WORD	877176	wordpools/wasnorm_wordpool.txt	LTP132	ltpFR	3	10	-1	BONE	148	n/a	-1	1	1.0	1.0	upper	../fonts/Verdana.ttf
1758.164	n/a	WORD	879082	wordpools/wasnorm_wordpool.txt	LTP132	ltpFR	3	10	-1	FLAG	573	n/a	-1	1	1.0	1.0	upper	../fonts/Verdana.ttf
1762.05	n/a	WORD	881025	wordpools/wasnorm_wordpool.txt	LTP132	ltpFR	3	10	-1	DRESS	495	n/a	-1	1	1.0	1.0	upper	../fonts/Verdana.ttf
1766.08	n/a	WORD	883040	wordpools/wasnorm_wordpool.txt	LTP132	ltpFR	3	10	-1	PANTS	1010	n/a	-1	1	1.0	1.0	upper	../fonts/Verdana.ttf
1770.268	n/a	WORD	885134	wordpools/wasnorm_wordpool.txt	LTP132	ltpFR	3	10	-1	PORCUPINE	1107	n/a	-1	1	1.0	1.0	upper	../fonts/Verdana.ttf
1774.17	n/a	WORD	887085	wordpools/wasnorm_wordpool.txt	LTP132	ltpFR	3	10	-1	CRITIC	410	n/a	-1	1	1.0	1.0	upper	../fonts/Verdana.ttf
1778.334	n/a	WORD	889167	wordpools/wasnorm_wordpool.txt	LTP132	ltpFR	3	10	-1	VIDEO	1564	n/a	-1	1	1.0	1.0	upper	../fonts/Verdana.ttf
1782.388	n/a	WORD	891194	wordpools/wasnorm_wordpool.txt	LTP132	ltpFR	3	10	-1	JOINT	758	n/a	-1	1	1.0	1.0	upper	../fonts/Verdana.ttf
1786.532	n/a	WORD	893266	wordpools/wasnorm_wordpool.txt	LTP132	ltpFR	3	10	-1	CART	250	n/a	-1	1	1.0	1.0	upper	../fonts/Verdana.ttf
1790.544	n/a	WORD	895272	wordpools/wasnorm_wordpool.txt	LTP132	ltpFR	3	10	-1	KNAPSACK	783	n/a	-1	1	1.0	1.0	upper	../fonts/Verdana.ttf
1794.366	n/a	WORD	897183	wordpools/wasnorm_wordpool.txt	LTP132	ltpFR	3	10	-1	DESSERT	453	n/a	-1	1	1.0	1.0	upper	../fonts/Verdana.ttf
1798.51	n/a	WORD	899255	wordpools/wasnorm_wordpool.txt	LTP132	ltpFR	3	10	-1	GALAXY	617	n/a	-1	1	1.0	1.0	upper	../fonts/Verdana.ttf
1802.398	n/a	WORD	901199	wordpools/wasnorm_wordpool.txt	LTP132	ltpFR	3	10	-1	ROD	1203	n/a	-1	1	1.0	1.0	upper	../fonts/Verdana.ttf
1806.394	n/a	WORD	903197	wordpools/wasnorm_wordpool.txt	LTP132	ltpFR	3	10	-1	MONASTERY	907	n/a	-1	1	1.0	1.0	upper	../fonts/Verdana.ttf
1812.212	n/a	REC_START	906106	n/a	LTP132	ltpFR	3	10	n/a	n/a	n/a	n/a	n/a	n/a	n/a	n/a	n/a	n/a
1813.21	n/a	REC_WORD	906605	wordpools/wasnorm_wordpool.txt	LTP132	ltpFR	3	10	-1	KNAPSACK	783	n/a	-1	n/a	n/a	n/a	n/a	n/a
1814.178	n/a	REC_WORD	907089	wordpools/wasnorm_wordpool.txt	LTP132	ltpFR	3	10	-1	MONASTERY	907	n/a	-1	n/a	n/a	n/a	n/a	n/a
1817.43	n/a	REC_WORD	908715	wordpools/wasnorm_wordpool.txt	LTP132	ltpFR	3	10	-1	DESSERT	453	n/a	-1	n/a	n/a	n/a	n/a	n/a
1835.31	n/a	REC_WORD	917655	wordpools/wasnorm_wordpool.txt	LTP132	ltpFR	3	10	-1	PAD	998	n/a	-1	n/a	n/a	n/a	n/a	n/a
1866.086	n/a	REC_WORD	933043	wordpools/wasnorm_wordpool.txt	LTP132	ltpFR	3	10	-1	ROD	1203	n/a	-1	n/a	n/a	n/a	n/a	n/a
1874.202	n/a	REC_WORD	937101	wordpools/wasnorm_wordpool.txt	LTP132	ltpFR	3	10	-1	JOINT	758	n/a	-1	n/a	n/a	n/a	n/a	n/a
1891.72	n/a	WORD	945860	wordpools/wasnorm_wordpool.txt	LTP132	ltpFR	3	11	1	POWDER	1117	n/a	0	0	0.5869140625	0.422607421875	lower	../fonts/amplitud.ttf
1895.74	n/a	WORD	947870	wordpools/wasnorm_wordpool.txt	LTP132	ltpFR	3	11	1	CHILD	299	n/a	1	0	0.5869140625	0.422607421875	lower	../fonts/amplitud.ttf
1899.668	n/a	WORD	949834	wordpools/wasnorm_wordpool.txt	LTP132	ltpFR	3	11	1	PARENT	1013	n/a	1	0	0.5869140625	0.422607421875	lower	../fonts/amplitud.ttf
1903.588	n/a	WORD	951794	wordpools/wasnorm_wordpool.txt	LTP132	ltpFR	3	11	0	SAGE	1222	n/a	0	1	0.412841796875	0.57763671875	upper	../fonts/zerothre.ttf
1907.718	n/a	WORD	953859	wordpools/wasnorm_wordpool.txt	LTP132	ltpFR	3	11	0	PARSLEY	1016	n/a	0	1	0.412841796875	0.57763671875	upper	../fonts/zerothre.ttf
1911.788	n/a	WORD	955894	wordpools/wasnorm_wordpool.txt	LTP132	ltpFR	3	11	0	STUMP	1396	n/a	1	1	0.412841796875	0.57763671875	upper	../fonts/zerothre.ttf
1915.642	n/a	WORD	957821	wordpools/wasnorm_wordpool.txt	LTP132	ltpFR	3	11	1	COLUMN	350	n/a	0	0	0.5869140625	0.422607421875	lower	../fonts/amplitud.ttf
1919.528	n/a	WORD	959764	wordpools/wasnorm_wordpool.txt	LTP132	ltpFR	3	11	1	PAW	1029	n/a	0	0	0.5869140625	0.422607421875	lower	../fonts/amplitud.ttf
1923.35	n/a	WORD	961675	wordpools/wasnorm_wordpool.txt	LTP132	ltpFR	3	11	1	MITTEN	902	n/a	0	0	0.5869140625	0.422607421875	lower	../fonts/amplitud.ttf
1927.536	n/a	WORD	963768	wordpools/wasnorm_wordpool.txt	LTP132	ltpFR	3	11	1	CONTRACTOR	369	n/a	1	0	0.5869140625	0.422607421875	lower	../fonts/amplitud.ttf
1931.59	n/a	WORD	965795	wordpools/wasnorm_wordpool.txt	LTP132	ltpFR	3	11	1	TREE	1502	n/a	1	0	0.5869140625	0.422607421875	lower	../fonts/amplitud.ttf
1935.668	n/a	WORD	967834	wordpools/wasnorm_wordpool.txt	LTP132	ltpFR	3	11	0	LIPSTICK	829	n/a	0	1	0.412841796875	0.57763671875	upper	../fonts/zerothre.ttf
1939.846	n/a	WORD	969923	wordpools/wasnorm_wordpool.txt	LTP132	ltpFR	3	11	0	FRAGRANCE	599	n/a	0	1	0.412841796875	0.57763671875	upper	../fonts/zerothre.ttf
1943.884	n/a	WORD	971942	wordpools/wasnorm_wordpool.txt	LTP132	ltpFR	3	11	0	GHOST	634	n/a	1	1	0.412841796875	0.57763671875	upper	../fonts/zerothre.ttf
1947.788	n/a	WORD	973894	wordpools/wasnorm_wordpool.txt	LTP132	ltpFR	3	11	0	COWBOY	395	n/a	1	1	0.412841796875	0.57763671875	upper	../fonts/zerothre.ttf
1951.9	n/a	WORD	975950	wordpools/wasnorm_wordpool.txt	LTP132	ltpFR	3	11	0	ESCALATOR	539	n/a	1	1	0.412841796875	0.57763671875	upper	../fonts/zerothre.ttf
1957.728	n/a	REC_START	978864	n/a	LTP132	ltpFR	3	11	n/a	n/a	n/a	n/a	n/a	n/a	n/a	n/a	n/a	n/a
1958.456	n/a	REC_WORD	979228	wordpools/wasnorm_wordpool.txt	LTP132	ltpFR	3	11	0	COWBOY	395	n/a	1	n/a	n/a	n/a	n/a	n/a
1959.224	n/a	REC_WORD	979612	wordpools/wasnorm_wordpool.txt	LTP132	ltpFR	3	11	0	ESCALATOR	539	n/a	1	n/a	n/a	n/a	n/a	n/a
1960.306	n/a	REC_WORD	980153	wordpools/wasnorm_wordpool.txt	LTP132	ltpFR	3	11	0	LIPSTICK	829	n/a	0	n/a	n/a	n/a	n/a	n/a
1963.564	n/a	REC_WORD	981782	wordpools/wasnorm_wordpool.txt	LTP132	ltpFR	3	11	0	PARSLEY	1016	n/a	0	n/a	n/a	n/a	n/a	n/a
1964.696	n/a	REC_WORD	982348	wordpools/wasnorm_wordpool.txt	LTP132	ltpFR	3	11	0	SAGE	1222	n/a	0	n/a	n/a	n/a	n/a	n/a
1967.286	n/a	REC_WORD	983643	wordpools/wasnorm_wordpool.txt	LTP132	ltpFR	3	11	1	CHILD	299	n/a	1	n/a	n/a	n/a	n/a	n/a
1968.138	n/a	REC_WORD	984069	wordpools/wasnorm_wordpool.txt	LTP132	ltpFR	3	11	1	PARENT	1013	n/a	1	n/a	n/a	n/a	n/a	n/a
1978.808	n/a	REC_WORD	989404	wordpools/wasnorm_wordpool.txt	LTP132	ltpFR	3	11	0	ESCALATOR	539	n/a	1	n/a	n/a	n/a	n/a	n/a
2000.176	n/a	REC_WORD	1000088	wordpools/wasnorm_wordpool.txt	LTP132	ltpFR	3	11	0	COWBOY	395	n/a	1	n/a	n/a	n/a	n/a	n/a
2038.534	n/a	WORD	1019267	wordpools/wasnorm_wordpool.txt	LTP132	ltpFR	3	12	-1	CARPENTER	246	n/a	-1	1	1.0	1.0	upper	../fonts/Verdana.ttf
2042.44	n/a	WORD	1021220	wordpools/wasnorm_wordpool.txt	LTP132	ltpFR	3	12	-1	CUPBOARD	425	n/a	-1	1	1.0	1.0	upper	../fonts/Verdana.ttf
2046.6	n/a	WORD	1023300	wordpools/wasnorm_wordpool.txt	LTP132	ltpFR	3	12	-1	OWNER	993	n/a	-1	1	1.0	1.0	upper	../fonts/Verdana.ttf
2050.746	n/a	WORD	1025373	wordpools/wasnorm_wordpool.txt	LTP132	ltpFR	3	12	-1	BOOK	149	n/a	-1	1	1.0	1.0	upper	../fonts/Verdana.ttf
2054.624	n/a	WORD	1027312	wordpools/wasnorm_wordpool.txt	LTP132	ltpFR	3	12	-1	BEET	115	n/a	-1	1	1.0	1.0	upper	../fonts/Verdana.ttf
2058.644	n/a	WORD	1029322	wordpools/wasnorm_wordpool.txt	LTP132	ltpFR	3	12	-1	PONY	1102	n/a	-1	1	1.0	1.0	upper	../fonts/Verdana.ttf
2062.54	n/a	WORD	1031270	wordpools/wasnorm_wordpool.txt	LTP132	ltpFR	3	12	-1	ZEBRA	1635	n/a	-1	1	1.0	1.0	upper	../fonts/Verdana.ttf
2066.66	n/a	WORD	1033330	wordpools/wasnorm_wordpool.txt	LTP132	ltpFR	3	12	-1	ROUGE	1213	n/a	-1	1	1.0	1.0	upper	../fonts/Verdana.ttf
2070.714	n/a	WORD	1035357	wordpools/wasnorm_wordpool.txt	LTP132	ltpFR	3	12	-1	SCREW	1254	n/a	-1	1	1.0	1.0	upper	../fonts/Verdana.ttf
2074.8	n/a	WORD	1037400	wordpools/wasnorm_wordpool.txt	LTP132	ltpFR	3	12	-1	SWAMP	1416	n/a	-1	1	1.0	1.0	upper	../fonts/Verdana.ttf
2078.654	n/a	WORD	1039327	wordpools/wasnorm_wordpool.txt	LTP132	ltpFR	3	12	-1	WATERFALL	1595	n/a	-1	1	1.0	1.0	upper	../fonts/Verdana.ttf
2082.708	n/a	WORD	1041354	wordpools/wasnorm_wordpool.txt	LTP132	ltpFR	3	12	-1	PRAIRIE	1118	n/a	-1	1	1.0	1.0	upper	../fonts/Verdana.ttf
2086.62	n/a	WORD	1043310	wordpools/wasnorm_wordpool.txt	LTP132	ltpFR	3	12	-1	FORT	595	n/a	-1	1	1.0	1.0	upper	../fonts/Verdana.ttf
2090.608	n/a	WORD	1045304	wordpools/wasnorm_wordpool.txt	LTP132	ltpFR	3	12	-1	THESAURUS	1454	n/a	-1	1	1.0	1.0	upper	../fonts/Verdana.ttf
2094.552	n/a	WORD	1047276	wordpools/wasnorm_wordpool.txt	LTP132	ltpFR	3	12	-1	HELICOPTER	701	n/a	-1	1	1.0	1.0	upper	../fonts/Verdana.ttf
2098.756	n/a	WORD	1049378	wordpools/wasnorm_wordpool.txt	LTP132	ltpFR	3	12	-1	PLUTO	1092	n/a	-1	1	1.0	1.0	upper	../fonts/Verdana.ttf
2104.626	n/a	REC_START	1052313	n/a	LTP132	ltpFR	3	12	n/a	n/a	n/a	n/a	n/a	n/a	n/a	n/a	n/a	n/a
2105.698	n/a	REC_WORD	1052849	wordpools/wasnorm_wordpool.txt	LTP132	ltpFR	3	12	-1	PLUTO	1092	n/a	-1	n/a	n/a	n/a	n/a	n/a
2119.154	n/a	REC_WORD	1059577	wordpools/wasnorm_wordpool.txt	LTP132	ltpFR	3	12	-1	CARPENTER	246	n/a	-1	n/a	n/a	n/a	n/a	n/a
2120.336	n/a	REC_WORD	1060168	wordpools/wasnorm_wordpool.txt	LTP132	ltpFR	3	12	-1	OWNER	993	n/a	-1	n/a	n/a	n/a	n/a	n/a
2129.554	n/a	REC_WORD	1064777	wordpools/wasnorm_wordpool.txt	LTP132	ltpFR	3	12	-1	CUPBOARD	425	n/a	-1	n/a	n/a	n/a	n/a	n/a
2152.726	n/a	REC_WORD	1076363	wordpools/wasnorm_wordpool.txt	LTP132	ltpFR	3	12	-1	WATERFALL	1595	n/a	-1	n/a	n/a	n/a	n/a	n/a
2153.594	n/a	REC_WORD	1076797	wordpools/wasnorm_wordpool.txt	LTP132	ltpFR	3	12	-1	SWAMP	1416	n/a	-1	n/a	n/a	n/a	n/a	n/a
2180.214	n/a	REST_REWET	1090107	n/a	LTP132	ltpFR	3	12	n/a	n/a	n/a	n/a	n/a	n/a	n/a	n/a	n/a	n/a
2541.916	n/a	WORD	1270958	wordpools/wasnorm_wordpool.txt	LTP132	ltpFR	3	13	0	ELM	527	n/a	1	1	0.412841796875	0.57763671875	upper	../fonts/zerothre.ttf
2545.894	n/a	WORD	1272947	wordpools/wasnorm_wordpool.txt	LTP132	ltpFR	3	13	0	CREW	406	n/a	1	1	0.412841796875	0.57763671875	upper	../fonts/zerothre.ttf
2549.922	n/a	WORD	1274961	wordpools/wasnorm_wordpool.txt	LTP132	ltpFR	3	13	0	BROOM	178	n/a	1	1	0.412841796875	0.57763671875	upper	../fonts/zerothre.ttf
2553.794	n/a	WORD	1276897	wordpools/wasnorm_wordpool.txt	LTP132	ltpFR	3	13	0	RULER	1216	n/a	1	1	0.412841796875	0.57763671875	upper	../fonts/zerothre.ttf
2557.64	n/a	WORD	1278820	wordpools/wasnorm_wordpool.txt	LTP132	ltpFR	3	13	0	POSSUM	1112	n/a	1	1	0.412841796875	0.57763671875	upper	../fonts/zerothre.ttf
2561.76	n/a	WORD	1280880	wordpools/wasnorm_wordpool.txt	LTP132	ltpFR	3	13	0	TOOTHBRUSH	1482	n/a	0	1	0.412841796875	0.57763671875	upper	../fonts/zerothre.ttf
2565.872	n/a	WORD	1282936	wordpools/wasnorm_wordpool.txt	LTP132	ltpFR	3	13	0	GLUE	643	n/a	0	1	0.412841796875	0.57763671875	upper	../fonts/zerothre.ttf
2569.758	n/a	WORD	1284879	wordpools/wasnorm_wordpool.txt	LTP132	ltpFR	3	13	0	ANCHOR	21	n/a	1	1	0.412841796875	0.57763671875	upper	../fonts/zerothre.ttf
2573.762	n/a	WORD	1286881	wordpools/wasnorm_wordpool.txt	LTP132	ltpFR	3	13	0	QUEEN	1149	n/a	1	1	0.412841796875	0.57763671875	upper	../fonts/zerothre.ttf
2577.766	n/a	WORD	1288883	wordpools/wasnorm_wordpool.txt	LTP132	ltpFR	3	13	0	HARP	689	n/a	1	1	0.412841796875	0.57763671875	upper	../fonts/zerothre.ttf
2581.97	n/a	WORD	1290985	wordpools/wasnorm_wordpool.txt	LTP132	ltpFR	3	13	0	PIANO	1057	n/a	1	1	0.412841796875	0.57763671875	upper	../fonts/zerothre.ttf
2585.964	n/a	WORD	1292982	wordpools/wasnorm_wordpool.txt	LTP132	ltpFR	3	13	0	PADDLE	1000	n/a	1	1	0.412841796875	0.57763671875	upper	../fonts/zerothre.ttf
2590.018	n/a	WORD	1295009	wordpools/wasnorm_wordpool.txt	LTP132	ltpFR	3	13	0	PAIL	1002	n/a	1	1	0.412841796875	0.57763671875	upper	../fonts/zerothre.ttf
2594.106	n/a	WORD	1297053	wordpools/wasnorm_wordpool.txt	LTP132	ltpFR	3	13	0	CAFETERIA	217	n/a	1	1	0.412841796875	0.57763671875	upper	../fonts/zerothre.ttf
2598.234	n/a	WORD	1299117	wordpools/wasnorm_wordpool.txt	LTP132	ltpFR	3	13	0	BEAN	105	n/a	0	1	0.412841796875	0.57763671875	upper	../fonts/zerothre.ttf
2602.046	n/a	WORD	1301023	wordpools/wasnorm_wordpool.txt	LTP132	ltpFR	3	13	0	MARGARINE	868	n/a	0	1	0.412841796875	0.57763671875	upper	../fonts/zerothre.ttf
2607.732	n/a	REC_START	1303866	n/a	LTP132	ltpFR	3	13	n/a	n/a	n/a	n/a	n/a	n/a	n/a	n/a	n/a	n/a
2608.546	n/a	REC_WORD	1304273	wordpools/wasnorm_wordpool.txt	LTP132	ltpFR	3	13	0	BEAN	105	n/a	0	n/a	n/a	n/a	n/a	n/a
2609.238	n/a	REC_WORD	1304619	wordpools/wasnorm_wordpool.txt	LTP132	ltpFR	3	13	0	MARGARINE	868	n/a	0	n/a	n/a	n/a	n/a	n/a
2610.856	n/a	REC_WORD	1305428	wordpools/wasnorm_wordpool.txt	LTP132	ltpFR	3	13	0	CAFETERIA	217	n/a	1	n/a	n/a	n/a	n/a	n/a
2612.81	n/a	REC_WORD	1306405	wordpools/wasnorm_wordpool.txt	LTP132	ltpFR	3	13	0	HARP	689	n/a	1	n/a	n/a	n/a	n/a	n/a
2614.462	n/a	REC_WORD	1307231	wordpools/wasnorm_wordpool.txt	LTP132	ltpFR	3	13	0	RULER	1216	n/a	1	n/a	n/a	n/a	n/a	n/a
2615.454	n/a	REC_WORD	1307727	wordpools/wasnorm_wordpool.txt	LTP132	ltpFR	3	13	0	QUEEN	1149	n/a	1	n/a	n/a	n/a	n/a	n/a
2616.488	n/a	REC_WORD	1308244	wordpools/wasnorm_wordpool.txt	LTP132	ltpFR	3	13	0	ELM	527	n/a	1	n/a	n/a	n/a	n/a	n/a
2620.204	n/a	REC_WORD	1310102	wordpools/wasnorm_wordpool.txt	LTP132	ltpFR	3	13	0	BROOM	178	n/a	1	n/a	n/a	n/a	n/a	n/a
2623.452	n/a	REC_WORD	1311726	wordpools/wasnorm_wordpool.txt	LTP132	ltpFR	3	13	0	CHAIR	274	n/a	0	n/a	n/a	n/a	n/a	n/a
2631.324	n/a	REC_WORD	1315662	wordpools/wasnorm_wordpool.txt	LTP132	ltpFR	3	13	0	CREW	406	n/a	1	n/a	n/a	n/a	n/a	n/a
2646.968	n/a	REC_WORD	1323484	wordpools/wasnorm_wordpool.txt	LTP132	ltpFR	3	13	0	MARGARINE	868	n/a	0	n/a	n/a	n/a	n/a	n/a
2665.066	n/a	REC_WORD	1332533	wordpools/wasnorm_wordpool.txt	LTP132	ltpFR	3	13	0	PIANO	1057	n/a	1	n/a	n/a	n/a	n/a	n/a
2694.318	n/a	WORD	1347159	wordpools/wasnorm_wordpool.txt	LTP132	ltpFR	3	14	0	ASSISTANT	48	n/a	1	1	0.412841796875	0.57763671875	upper	../fonts/zerothre.ttf
2698.446	n/a	WORD	1349223	wordpools/wasnorm_wordpool.txt	LTP132	ltpFR	3	14	0	DELINQUENT	445	n/a	1	1	0.412841796875	0.57763671875	upper	../fonts/zerothre.ttf
2702.408	n/a	WORD	1351204	wordpools/wasnorm_wordpool.txt	LTP132	ltpFR	3	14	1	MULE	931	n/a	1	0	0.5869140625	0.422607421875	lower	../fonts/amplitud.ttf
2706.362	n/a	WORD	1353181	wordpools/wasnorm_wordpool.txt	LTP132	ltpFR	3	14	1	SENATE	1267	n/a	1	0	0.5869140625	0.422607421875	lower	../fonts/amplitud.ttf
2710.398	n/a	WORD	1355199	wordpools/wasnorm_wordpool.txt	LTP132	ltpFR	3	14	1	CABIN	211	n/a	0	0	0.5869140625	0.422607421875	lower	../fonts/amplitud.ttf
2714.26	n/a	WORD	1357130	wordpools/wasnorm_wordpool.txt	LTP132	ltpFR	3	14	1	COFFIN	342	n/a	0	0	0.5869140625	0.422607421875	lower	../fonts/amplitud.ttf
2718.38	n/a	WORD	1359190	wordpools/wasnorm_wordpool.txt	LTP132	ltpFR	3	14	0	FACTORY	548	n/a	1	1	0.412841796875	0.57763671875	upper	../fonts/zerothre.ttf
2722.484	n/a	WORD	1361242	wordpools/wasnorm_wordpool.txt	LTP132	ltpFR	3	14	0	HAY	693	n/a	0	1	0.412841796875	0.57763671875	upper	../fonts/zerothre.ttf
2726.562	n/a	WORD	1363281	wordpools/wasnorm_wordpool.txt	LTP132	ltpFR	3	14	0	GLACIER	638	n/a	1	1	0.412841796875	0.57763671875	upper	../fonts/zerothre.ttf
2730.4	n/a	WORD	1365200	wordpools/wasnorm_wordpool.txt	LTP132	ltpFR	3	14	1	CASKET	255	n/a	0	0	0.5869140625	0.422607421875	lower	../fonts/amplitud.ttf
2734.488	n/a	WORD	1367244	wordpools/wasnorm_wordpool.txt	LTP132	ltpFR	3	14	1	TART	1436	n/a	0	0	0.5869140625	0.422607421875	lower	../fonts/amplitud.ttf
2738.506	n/a	WORD	1369253	wordpools/wasnorm_wordpool.txt	LTP132	ltpFR	3	14	1	SUGAR	1401	n/a	0	0	0.5869140625	0.422607421875	lower	../fonts/amplitud.ttf
2742.626	n/a	WORD	1371313	wordpools/wasnorm_wordpool.txt	LTP132	ltpFR	3	14	1	PARTNER	1017	n/a	1	0	0.5869140625	0.422607421875	lower	../fonts/amplitud.ttf
2746.44	n/a	WORD	1373220	wordpools/wasnorm_wordpool.txt	LTP132	ltpFR	3	14	0	BLOSSOM	138	n/a	0	1	0.412841796875	0.57763671875	upper	../fonts/zerothre.ttf
2750.576	n/a	WORD	1375288	wordpools/wasnorm_wordpool.txt	LTP132	ltpFR	3	14	0	CASH	252	n/a	0	1	0.412841796875	0.57763671875	upper	../fonts/zerothre.ttf
2754.77	n/a	WORD	1377385	wordpools/wasnorm_wordpool.txt	LTP132	ltpFR	3	14	0	RECEIPT	1173	n/a	0	1	0.412841796875	0.57763671875	upper	../fonts/zerothre.ttf
2760.666	n/a	REC_START	1380333	n/a	LTP132	ltpFR	3	14	n/a	n/a	n/a	n/a	n/a	n/a	n/a	n/a	n/a	n/a
2761.264	n/a	REC_WORD	1380632	wordpools/wasnorm_wordpool.txt	LTP132	ltpFR	3	14	0	BLOSSOM	138	n/a	0	n/a	n/a	n/a	n/a	n/a
2762.152	n/a	REC_WORD	1381076	wordpools/wasnorm_wordpool.txt	LTP132	ltpFR	3	14	0	CASH	252	n/a	0	n/a	n/a	n/a	n/a	n/a
2762.91	n/a	REC_WORD	1381455	wordpools/wasnorm_wordpool.txt	LTP132	ltpFR	3	14	0	RECEIPT	1173	n/a	0	n/a	n/a	n/a	n/a	n/a
2764.372	n/a	REC_WORD	1382186	wordpools/wasnorm_wordpool.txt	LTP132	ltpFR	3	14	0	ASSISTANT	48	n/a	1	n/a	n/a	n/a	n/a	n/a
2765.48	n/a	REC_WORD	1382740	wordpools/wasnorm_wordpool.txt	LTP132	ltpFR	3	14	0	DELINQUENT	445	n/a	1	n/a	n/a	n/a	n/a	n/a
2772.26	n/a	REC_WORD	1386130	wordpools/wasnorm_wordpool.txt	LTP132	ltpFR	3	14	1	SENATE	1267	n/a	1	n/a	n/a	n/a	n/a	n/a
2775.508	n/a	REC_WORD	1387754	wordpools/wasnorm_wordpool.txt	LTP132	ltpFR	3	14	1	CABIN	211	n/a	0	n/a	n/a	n/a	n/a	n/a
2779.728	n/a	REC_WORD	1389864	wordpools/wasnorm_wordpool.txt	LTP132	ltpFR	3	14	0	BLOSSOM	138	n/a	0	n/a	n/a	n/a	n/a	n/a
2791.89	n/a	REC_WORD	1395945	wordpools/wasnorm_wordpool.txt	LTP132	ltpFR	3	14	0	CASH	252	n/a	0	n/a	n/a	n/a	n/a	n/a
2821.02	n/a	REC_WORD	1410510	wordpools/wasnorm_wordpool.txt	LTP132	ltpFR	3	14	1	CASKET	255	n/a	0	n/a	n/a	n/a	n/a	n/a
2845.75	n/a	WORD	1422875	wordpools/wasnorm_wordpool.txt	LTP132	ltpFR	3	15	1	SEASHORE	1263	n/a	0	0	0.5869140625	0.422607421875	lower	../fonts/amplitud.ttf
2849.712	n/a	WORD	1424856	wordpools/wasnorm_wordpool.txt	LTP132	ltpFR	3	15	1	REEF	1177	n/a	0	0	0.5869140625	0.422607421875	lower	../fonts/amplitud.ttf
2853.642	n/a	WORD	1426821	wordpools/wasnorm_wordpool.txt	LTP132	ltpFR	3	15	1	DINNER	468	n/a	0	0	0.5869140625	0.422607421875	lower	../fonts/amplitud.ttf
2857.804	n/a	WORD	1428902	wordpools/wasnorm_wordpool.txt	LTP132	ltpFR	3	15	1	TABLET	1427	n/a	0	0	0.5869140625	0.422607421875	lower	../fonts/amplitud.ttf
2861.69	n/a	WORD	1430845	wordpools/wasnorm_wordpool.txt	LTP132	ltpFR	3	15	1	FOLDER	588	n/a	0	0	0.5869140625	0.422607421875	lower	../fonts/amplitud.ttf
2865.586	n/a	WORD	1432793	wordpools/wasnorm_wordpool.txt	LTP132	ltpFR	3	15	1	TREAD	1499	n/a	0	0	0.5869140625	0.422607421875	lower	../fonts/amplitud.ttf
2869.624	n/a	WORD	1434812	wordpools/wasnorm_wordpool.txt	LTP132	ltpFR	3	15	1	FURNITURE	616	n/a	0	0	0.5869140625	0.422607421875	lower	../fonts/amplitud.ttf
2873.494	n/a	WORD	1436747	wordpools/wasnorm_wordpool.txt	LTP132	ltpFR	3	15	1	SPAGHETTI	1346	n/a	0	0	0.5869140625	0.422607421875	lower	../fonts/amplitud.ttf
2877.598	n/a	WORD	1438799	wordpools/wasnorm_wordpool.txt	LTP132	ltpFR	3	15	1	HOSTESS	723	n/a	1	0	0.5869140625	0.422607421875	lower	../fonts/amplitud.ttf
2881.534	n/a	WORD	1440767	wordpools/wasnorm_wordpool.txt	LTP132	ltpFR	3	15	1	DAM	436	n/a	0	0	0.5869140625	0.422607421875	lower	../fonts/amplitud.ttf
2885.504	n/a	WORD	1442752	wordpools/wasnorm_wordpool.txt	LTP132	ltpFR	3	15	1	TOMATO	1476	n/a	1	0	0.5869140625	0.422607421875	lower	../fonts/amplitud.ttf
2889.46	n/a	WORD	1444730	wordpools/wasnorm_wordpool.txt	LTP132	ltpFR	3	15	1	COP	376	n/a	1	0	0.5869140625	0.422607421875	lower	../fonts/amplitud.ttf
2893.528	n/a	WORD	1446764	wordpools/wasnorm_wordpool.txt	LTP132	ltpFR	3	15	1	PUDDLE	1140	n/a	0	0	0.5869140625	0.422607421875	lower	../fonts/amplitud.ttf
2897.408	n/a	WORD	1448704	wordpools/wasnorm_wordpool.txt	LTP132	ltpFR	3	15	1	MONGOOSE	909	n/a	1	0	0.5869140625	0.422607421875	lower	../fonts/amplitud.ttf
2901.362	n/a	WORD	1450681	wordpools/wasnorm_wordpool.txt	LTP132	ltpFR	3	15	1	HAWK	692	n/a	1	0	0.5869140625	0.422607421875	lower	../fonts/amplitud.ttf
2905.466	n/a	WORD	1452733	wordpools/wasnorm_wordpool.txt	LTP132	ltpFR	3	15	1	LIBRARY	816	n/a	0	0	0.5869140625	0.422607421875	lower	../fonts/amplitud.ttf
2911.234	n/a	REC_START	1455617	n/a	LTP132	ltpFR	3	15	n/a	n/a	n/a	n/a	n/a	n/a	n/a	n/a	n/a	n/a
2911.918	n/a	REC_WORD	1455959	wordpools/wasnorm_wordpool.txt	LTP132	ltpFR	3	15	1	LIBRARY	816	n/a	0	n/a	n/a	n/a	n/a	n/a
2912.866	n/a	REC_WORD	1456433	wordpools/wasnorm_wordpool.txt	LTP132	ltpFR	3	15	1	TREAD	1499	n/a	0	n/a	n/a	n/a	n/a	n/a
2914.038	n/a	REC_WORD	1457019	wordpools/wasnorm_wordpool.txt	LTP132	ltpFR	3	15	1	SEASHORE	1263	n/a	0	n/a	n/a	n/a	n/a	n/a
2915.254	n/a	REC_WORD	1457627	wordpools/wasnorm_wordpool.txt	LTP132	ltpFR	3	15	1	REEF	1177	n/a	0	n/a	n/a	n/a	n/a	n/a
2916.468	n/a	REC_WORD	1458234	wordpools/wasnorm_wordpool.txt	LTP132	ltpFR	3	15	1	PUDDLE	1140	n/a	0	n/a	n/a	n/a	n/a	n/a
2917.28	n/a	REC_WORD	1458640	wordpools/wasnorm_wordpool.txt	LTP132	ltpFR	3	15	1	SPAGHETTI	1346	n/a	0	n/a	n/a	n/a	n/a	n/a
2918.558	n/a	REC_WORD	1459279	wordpools/wasnorm_wordpool.txt	LTP132	ltpFR	3	15	1	TOMATO	1476	n/a	1	n/a	n/a	n/a	n/a	n/a
2919.824	n/a	REC_WORD	1459912	wordpools/wasnorm_wordpool.txt	LTP132	ltpFR	3	15	1	HOSTESS	723	n/a	1	n/a	n/a	n/a	n/a	n/a
2963.776	n/a	REC_WORD	1481888	wordpools/wasnorm_wordpool.txt	LTP132	ltpFR	3	15	1	TABLET	1427	n/a	0	n/a	n/a	n/a	n/a	n/a
2990.542	n/a	WORD	1495271	wordpools/wasnorm_wordpool.txt	LTP132	ltpFR	3	16	0	BRANDY	169	n/a	0	1	0.412841796875	0.57763671875	upper	../fonts/zerothre.ttf
2994.496	n/a	WORD	1497248	wordpools/wasnorm_wordpool.txt	LTP132	ltpFR	3	16	0	LOAF	835	n/a	0	1	0.412841796875	0.57763671875	upper	../fonts/zerothre.ttf
2998.45	n/a	WORD	1499225	wordpools/wasnorm_wordpool.txt	LTP132	ltpFR	3	16	0	BREAD	170	n/a	0	1	0.412841796875	0.57763671875	upper	../fonts/zerothre.ttf
3002.488	n/a	WORD	1501244	wordpools/wasnorm_wordpool.txt	LTP132	ltpFR	3	16	0	PIN	1072	n/a	0	1	0.412841796875	0.57763671875	upper	../fonts/zerothre.ttf
3006.358	n/a	WORD	1503179	wordpools/wasnorm_wordpool.txt	LTP132	ltpFR	3	16	0	DANDRUFF	439	n/a	0	1	0.412841796875	0.57763671875	upper	../fonts/zerothre.ttf
3010.56	n/a	WORD	1505280	wordpools/wasnorm_wordpool.txt	LTP132	ltpFR	3	16	0	SKIN	1318	n/a	0	1	0.412841796875	0.57763671875	upper	../fonts/zerothre.ttf
3014.382	n/a	WORD	1507191	wordpools/wasnorm_wordpool.txt	LTP132	ltpFR	3	16	0	ATMOSPHERE	54	n/a	1	1	0.412841796875	0.57763671875	upper	../fonts/zerothre.ttf
3018.412	n/a	WORD	1509206	wordpools/wasnorm_wordpool.txt	LTP132	ltpFR	3	16	0	SALMON	1227	n/a	0	1	0.412841796875	0.57763671875	upper	../fonts/zerothre.ttf
3022.3	n/a	WORD	1511150	wordpools/wasnorm_wordpool.txt	LTP132	ltpFR	3	16	0	GULL	671	n/a	1	1	0.412841796875	0.57763671875	upper	../fonts/zerothre.ttf
3026.228	n/a	WORD	1513114	wordpools/wasnorm_wordpool.txt	LTP132	ltpFR	3	16	0	SALOON	1228	n/a	1	1	0.412841796875	0.57763671875	upper	../fonts/zerothre.ttf
3030.364	n/a	WORD	1515182	wordpools/wasnorm_wordpool.txt	LTP132	ltpFR	3	16	0	FEAST	556	n/a	0	1	0.412841796875	0.57763671875	upper	../fonts/zerothre.ttf
3034.468	n/a	WORD	1517234	wordpools/wasnorm_wordpool.txt	LTP132	ltpFR	3	16	0	PROFESSOR	1131	n/a	1	1	0.412841796875	0.57763671875	upper	../fonts/zerothre.ttf
3038.512	n/a	WORD	1519256	wordpools/wasnorm_wordpool.txt	LTP132	ltpFR	3	16	0	PHILOSOPHER	1054	n/a	1	1	0.412841796875	0.57763671875	upper	../fonts/zerothre.ttf
3042.516	n/a	WORD	1521258	wordpools/wasnorm_wordpool.txt	LTP132	ltpFR	3	16	0	FAN	551	n/a	1	1	0.412841796875	0.57763671875	upper	../fonts/zerothre.ttf
3046.422	n/a	WORD	1523211	wordpools/wasnorm_wordpool.txt	LTP132	ltpFR	3	16	0	TACK	1428	n/a	0	1	0.412841796875	0.57763671875	upper	../fonts/zerothre.ttf
3050.276	n/a	WORD	1525138	wordpools/wasnorm_wordpool.txt	LTP132	ltpFR	3	16	0	RAIL	1161	n/a	1	1	0.412841796875	0.57763671875	upper	../fonts/zerothre.ttf
3056.118	n/a	REC_START	1528059	n/a	LTP132	ltpFR	3	16	n/a	n/a	n/a	n/a	n/a	n/a	n/a	n/a	n/a	n/a
3056.606	n/a	REC_WORD	1528303	wordpools/wasnorm_wordpool.txt	LTP132	ltpFR	3	16	0	RAIL	1161	n/a	1	n/a	n/a	n/a	n/a	n/a
3057.658	n/a	REC_WORD	1528829	wordpools/wasnorm_wordpool.txt	LTP132	ltpFR	3	16	0	BRANDY	169	n/a	0	n/a	n/a	n/a	n/a	n/a
3058.572	n/a	REC_WORD	1529286	wordpools/wasnorm_wordpool.txt	LTP132	ltpFR	3	16	0	BRANDY	169	n/a	0	n/a	n/a	n/a	n/a	n/a
3059.434	n/a	REC_WORD	1529717	wordpools/wasnorm_wordpool.txt	LTP132	ltpFR	3	16	0	LOAF	835	n/a	0	n/a	n/a	n/a	n/a	n/a
3060.402	n/a	REC_WORD	1530201	wordpools/wasnorm_wordpool.txt	LTP132	ltpFR	3	16	0	SALMON	1227	n/a	0	n/a	n/a	n/a	n/a	n/a
3065.52	n/a	REC_WORD	1532760	wordpools/wasnorm_wordpool.txt	LTP132	ltpFR	3	16	0	SKIN	1318	n/a	0	n/a	n/a	n/a	n/a	n/a
3066.828	n/a	REC_WORD	1533414	wordpools/wasnorm_wordpool.txt	LTP132	ltpFR	3	16	0	DANDRUFF	439	n/a	0	n/a	n/a	n/a	n/a	n/a
3068.29	n/a	REC_WORD	1534145	wordpools/wasnorm_wordpool.txt	LTP132	ltpFR	3	16	0	PIN	1072	n/a	0	n/a	n/a	n/a	n/a	n/a
3070.25	n/a	REC_WORD	1535125	wordpools/wasnorm_wordpool.txt	LTP132	ltpFR	3	16	0	TACK	1428	n/a	0	n/a	n/a	n/a	n/a	n/a
3071.648	n/a	REC_WORD	1535824	wordpools/wasnorm_wordpool.txt	LTP132	ltpFR	3	16	0	ATMOSPHERE	54	n/a	1	n/a	n/a	n/a	n/a	n/a
3072.934	n/a	REC_WORD	1536467	wordpools/wasnorm_wordpool.txt	LTP132	ltpFR	3	16	0	PROFESSOR	1131	n/a	1	n/a	n/a	n/a	n/a	n/a
3074.056	n/a	REC_WORD	1537028	wordpools/wasnorm_wordpool.txt	LTP132	ltpFR	3	16	0	PHILOSOPHER	1054	n/a	1	n/a	n/a	n/a	n/a	n/a
3075.264	n/a	REC_WORD	1537632	wordpools/wasnorm_wordpool.txt	LTP132	ltpFR	3	16	0	FAN	551	n/a	1	n/a	n/a	n/a	n/a	n/a
3088.938	n/a	REC_WORD	1544469	wordpools/wasnorm_wordpool.txt	LTP132	ltpFR	3	16	0	FEAST	556	n/a	0	n/a	n/a	n/a	n/a	n/a
3154.864	n/a	REC_START	1577432	n/a	LTP132	ltpFR	3	1	n/a	n/a	n/a	n/a	n/a	n/a	n/a	n/a	n/a	n/a
3154.896	n/a	RECOG_TARGET	1577448	n/a	LTP132	ltpFR	3	1	1	SENATE	1267	5	1	n/a	n/a	n/a	n/a	n/a
3158.236	n/a	RECOG_RESP	1579118	n/a	LTP132	ltpFR	3	1	1	SENATE	1267	n/a	1	n/a	n/a	n/a	n/a	n/a
3158.998	n/a	RECOG_RESP_VV	1579499	n/a	LTP132	ltpFR	3	1	1	SENATE	1267	5	1	n/a	n/a	n/a	n/a	n/a
3161.018	n/a	RECOG_CONF	1580509	n/a	LTP132	ltpFR	3	1	1	SENATE	1267	5	1	n/a	n/a	n/a	n/a	n/a
3162.962	n/a	RECOG_TARGET	1581481	n/a	LTP132	ltpFR	3	1	-1	SHOELACE	1289	4	-1	n/a	n/a	n/a	n/a	n/a
3165.758	n/a	RECOG_RESP	1582879	n/a	LTP132	ltpFR	3	1	-1	SHOELACE	1289	n/a	-1	n/a	n/a	n/a	n/a	n/a
3166.792	n/a	RECOG_CONF	1583396	n/a	LTP132	ltpFR	3	1	-1	SHOELACE	1289	4	-1	n/a	n/a	n/a	n/a	n/a
3168.472	n/a	RECOG_TARGET	1584236	n/a	LTP132	ltpFR	3	1	0	COWBOY	395	5	1	n/a	n/a	n/a	n/a	n/a
3169.582	n/a	RECOG_RESP	1584791	n/a	LTP132	ltpFR	3	1	0	COWBOY	395	n/a	1	n/a	n/a	n/a	n/a	n/a
3170.802	n/a	RECOG_CONF	1585401	n/a	LTP132	ltpFR	3	1	0	COWBOY	395	5	1	n/a	n/a	n/a	n/a	n/a
3172.418	n/a	RECOG_TARGET	1586209	n/a	LTP132	ltpFR	3	1	1	DENTIST	447	4	1	n/a	n/a	n/a	n/a	n/a
3173.286	n/a	RECOG_RESP	1586643	n/a	LTP132	ltpFR	3	1	1	DENTIST	447	n/a	1	n/a	n/a	n/a	n/a	n/a
3174.21	n/a	RECOG_CONF	1587105	n/a	LTP132	ltpFR	3	1	1	DENTIST	447	4	1	n/a	n/a	n/a	n/a	n/a
3175.872	n/a	RECOG_TARGET	1587936	n/a	LTP132	ltpFR	3	1	0	BUTTERFLY	206	5	0	n/a	n/a	n/a	n/a	n/a
3176.77	n/a	RECOG_RESP	1588385	n/a	LTP132	ltpFR	3	1	0	BUTTERFLY	206	n/a	0	n/a	n/a	n/a	n/a	n/a
3177.776	n/a	RECOG_CONF	1588888	n/a	LTP132	ltpFR	3	1	0	BUTTERFLY	206	5	0	n/a	n/a	n/a	n/a	n/a
3179.318	n/a	RECOG_TARGET	1589659	n/a	LTP132	ltpFR	3	1	0	MARGARINE	868	5	0	n/a	n/a	n/a	n/a	n/a
3179.932	n/a	RECOG_RESP	1589966	n/a	LTP132	ltpFR	3	1	0	MARGARINE	868	n/a	0	n/a	n/a	n/a	n/a	n/a
3180.746	n/a	RECOG_CONF	1590373	n/a	LTP132	ltpFR	3	1	0	MARGARINE	868	5	0	n/a	n/a	n/a	n/a	n/a
3182.406	n/a	RECOG_TARGET	1591203	n/a	LTP132	ltpFR	3	1	0	COMEDIAN	352	3	1	n/a	n/a	n/a	n/a	n/a
3183.666	n/a	RECOG_RESP	1591833	n/a	LTP132	ltpFR	3	1	0	COMEDIAN	352	n/a	1	n/a	n/a	n/a	n/a	n/a
3184.658	n/a	RECOG_CONF	1592329	n/a	LTP132	ltpFR	3	1	0	COMEDIAN	352	3	1	n/a	n/a	n/a	n/a	n/a
3186.244	n/a	RECOG_TARGET	1593122	n/a	LTP132	ltpFR	3	1	0	RULER	1216	5	1	n/a	n/a	n/a	n/a	n/a
3187.254	n/a	RECOG_RESP	1593627	n/a	LTP132	ltpFR	3	1	0	RULER	1216	n/a	1	n/a	n/a	n/a	n/a	n/a
3188.168	n/a	RECOG_CONF	1594084	n/a	LTP132	ltpFR	3	1	0	RULER	1216	5	1	n/a	n/a	n/a	n/a	n/a
3189.832	n/a	RECOG_TARGET	1594916	n/a	LTP132	ltpFR	3	1	1	THORN	1459	5	0	n/a	n/a	n/a	n/a	n/a
3190.562	n/a	RECOG_RESP	1595281	n/a	LTP132	ltpFR	3	1	1	THORN	1459	n/a	0	n/a	n/a	n/a	n/a	n/a
3191.402	n/a	RECOG_CONF	1595701	n/a	LTP132	ltpFR	3	1	1	THORN	1459	5	0	n/a	n/a	n/a	n/a	n/a
3193.06	n/a	RECOG_LURE	1596530	n/a	LTP132	ltpFR	3	1	n/a	MACARONI	851	5	n/a	n/a	n/a	n/a	n/a	n/a
3193.776	n/a	RECOG_RESP	1596888	n/a	LTP132	ltpFR	3	1	n/a	MACARONI	851	n/a	n/a	n/a	n/a	n/a	n/a	n/a
3194.614	n/a	RECOG_CONF	1597307	n/a	LTP132	ltpFR	3	1	n/a	MACARONI	851	5	n/a	n/a	n/a	n/a	n/a	n/a
3196.374	n/a	RECOG_TARGET	1598187	n/a	LTP132	ltpFR	3	1	0	GRAVE	658	1	1	n/a	n/a	n/a	n/a	n/a
3197.706	n/a	RECOG_RESP	1598853	n/a	LTP132	ltpFR	3	1	0	GRAVE	658	n/a	1	n/a	n/a	n/a	n/a	n/a
3198.758	n/a	RECOG_CONF	1599379	n/a	LTP132	ltpFR	3	1	0	GRAVE	658	1	1	n/a	n/a	n/a	n/a	n/a
3200.436	n/a	RECOG_TARGET	1600218	n/a	LTP132	ltpFR	3	1	0	DRUM	502	5	1	n/a	n/a	n/a	n/a	n/a
3201.098	n/a	RECOG_RESP	1600549	n/a	LTP132	ltpFR	3	1	0	DRUM	502	n/a	1	n/a	n/a	n/a	n/a	n/a
3201.922	n/a	RECOG_CONF	1600961	n/a	LTP132	ltpFR	3	1	0	DRUM	502	5	1	n/a	n/a	n/a	n/a	n/a
3203.524	n/a	RECOG_TARGET	1601762	n/a	LTP132	ltpFR	3	1	0	DOVE	491	5	0	n/a	n/a	n/a	n/a	n/a
3204.83	n/a	RECOG_RESP	1602415	n/a	LTP132	ltpFR	3	1	0	DOVE	491	n/a	0	n/a	n/a	n/a	n/a	n/a
3205.822	n/a	RECOG_CONF	1602911	n/a	LTP132	ltpFR	3	1	0	DOVE	491	5	0	n/a	n/a	n/a	n/a	n/a
3207.486	n/a	RECOG_TARGET	1603743	n/a	LTP132	ltpFR	3	1	0	TACK	1428	5	0	n/a	n/a	n/a	n/a	n/a
3208.068	n/a	RECOG_RESP	1604034	n/a	LTP132	ltpFR	3	1	0	TACK	1428	n/a	0	n/a	n/a	n/a	n/a	n/a
3209.116	n/a	RECOG_CONF	1604558	n/a	LTP132	ltpFR	3	1	0	TACK	1428	5	0	n/a	n/a	n/a	n/a	n/a
3210.648	n/a	RECOG_TARGET	1605324	n/a	LTP132	ltpFR	3	1	1	FAMILY	550	1	1	n/a	n/a	n/a	n/a	n/a
3211.678	n/a	RECOG_RESP	1605839	n/a	LTP132	ltpFR	3	1	1	FAMILY	550	n/a	1	n/a	n/a	n/a	n/a	n/a
3212.8	n/a	RECOG_CONF	1606400	n/a	LTP132	ltpFR	3	1	1	FAMILY	550	1	1	n/a	n/a	n/a	n/a	n/a
3214.37	n/a	RECOG_TARGET	1607185	n/a	LTP132	ltpFR	3	1	1	MOTH	920	5	1	n/a	n/a	n/a	n/a	n/a
3214.996	n/a	RECOG_RESP	1607498	n/a	LTP132	ltpFR	3	1	1	MOTH	920	n/a	1	n/a	n/a	n/a	n/a	n/a
3215.818	n/a	RECOG_CONF	1607909	n/a	LTP132	ltpFR	3	1	1	MOTH	920	5	1	n/a	n/a	n/a	n/a	n/a
3217.466	n/a	RECOG_LURE	1608733	n/a	LTP132	ltpFR	3	1	n/a	CAPE	237	3	n/a	n/a	n/a	n/a	n/a	n/a
3218.176	n/a	RECOG_RESP	1609088	n/a	LTP132	ltpFR	3	1	n/a	CAPE	237	n/a	n/a	n/a	n/a	n/a	n/a	n/a
3219.62	n/a	RECOG_CONF	1609810	n/a	LTP132	ltpFR	3	1	n/a	CAPE	237	3	n/a	n/a	n/a	n/a	n/a	n/a
3221.194	n/a	RECOG_TARGET	1610597	n/a	LTP132	ltpFR	3	1	-1	PRAIRIE	1118	3	-1	n/a	n/a	n/a	n/a	n/a
3222.632	n/a	RECOG_RESP	1611316	n/a	LTP132	ltpFR	3	1	-1	PRAIRIE	1118	n/a	-1	n/a	n/a	n/a	n/a	n/a
3223.654	n/a	RECOG_CONF	1611827	n/a	LTP132	ltpFR	3	1	-1	PRAIRIE	1118	3	-1	n/a	n/a	n/a	n/a	n/a
3225.182	n/a	RECOG_TARGET	1612591	n/a	LTP132	ltpFR	3	1	1	SANDWICH	1232	4	0	n/a	n/a	n/a	n/a	n/a
3225.892	n/a	RECOG_RESP	1612946	n/a	LTP132	ltpFR	3	1	1	SANDWICH	1232	n/a	0	n/a	n/a	n/a	n/a	n/a
3226.936	n/a	RECOG_CONF	1613468	n/a	LTP132	ltpFR	3	1	1	SANDWICH	1232	4	0	n/a	n/a	n/a	n/a	n/a
3228.378	n/a	RECOG_LURE	1614189	n/a	LTP132	ltpFR	3	1	n/a	PEBBLE	1035	1	n/a	n/a	n/a	n/a	n/a	n/a
3229.058	n/a	RECOG_RESP	1614529	n/a	LTP132	ltpFR	3	1	n/a	PEBBLE	1035	n/a	n/a	n/a	n/a	n/a	n/a	n/a
3230.134	n/a	RECOG_CONF	1615067	n/a	LTP132	ltpFR	3	1	n/a	PEBBLE	1035	1	n/a	n/a	n/a	n/a	n/a	n/a
3234.38	n/a	REC_START	1617190	n/a	LTP132	ltpFR	3	2	n/a	n/a	n/a	n/a	n/a	n/a	n/a	n/a	n/a	n/a
3234.406	n/a	RECOG_TARGET	1617203	n/a	LTP132	ltpFR	3	2	-1	HALL	677	5	-1	n/a	n/a	n/a	n/a	n/a
3235.428	n/a	RECOG_RESP	1617714	n/a	LTP132	ltpFR	3	2	-1	HALL	677	n/a	-1	n/a	n/a	n/a	n/a	n/a
3236.304	n/a	RECOG_CONF	1618152	n/a	LTP132	ltpFR	3	2	-1	HALL	677	5	-1	n/a	n/a	n/a	n/a	n/a
3237.884	n/a	RECOG_TARGET	1618942	n/a	LTP132	ltpFR	3	2	0	TWIN	1528	5	1	n/a	n/a	n/a	n/a	n/a
3238.448	n/a	RECOG_RESP	1619224	n/a	LTP132	ltpFR	3	2	0	TWIN	1528	n/a	1	n/a	n/a	n/a	n/a	n/a
3239.432	n/a	RECOG_CONF	1619716	n/a	LTP132	ltpFR	3	2	0	TWIN	1528	5	1	n/a	n/a	n/a	n/a	n/a
3241.054	n/a	RECOG_TARGET	1620527	n/a	LTP132	ltpFR	3	2	1	PLASTER	1085	5	0	n/a	n/a	n/a	n/a	n/a
3241.874	n/a	RECOG_RESP	1620937	n/a	LTP132	ltpFR	3	2	1	PLASTER	1085	n/a	0	n/a	n/a	n/a	n/a	n/a
3242.824	n/a	RECOG_CONF	1621412	n/a	LTP132	ltpFR	3	2	1	PLASTER	1085	5	0	n/a	n/a	n/a	n/a	n/a
3244.502	n/a	RECOG_TARGET	1622251	n/a	LTP132	ltpFR	3	2	0	TOOTHBRUSH	1482	4	0	n/a	n/a	n/a	n/a	n/a
3245.244	n/a	RECOG_RESP	1622622	n/a	LTP132	ltpFR	3	2	0	TOOTHBRUSH	1482	n/a	0	n/a	n/a	n/a	n/a	n/a
3246.188	n/a	RECOG_CONF	1623094	n/a	LTP132	ltpFR	3	2	0	TOOTHBRUSH	1482	4	0	n/a	n/a	n/a	n/a	n/a
3247.73	n/a	RECOG_TARGET	1623865	n/a	LTP132	ltpFR	3	2	1	DINNER	468	4	0	n/a	n/a	n/a	n/a	n/a
3248.248	n/a	RECOG_RESP	1624124	n/a	LTP132	ltpFR	3	2	1	DINNER	468	n/a	0	n/a	n/a	n/a	n/a	n/a
3249.104	n/a	RECOG_CONF	1624552	n/a	LTP132	ltpFR	3	2	1	DINNER	468	4	0	n/a	n/a	n/a	n/a	n/a
3250.718	n/a	RECOG_LURE	1625359	n/a	LTP132	ltpFR	3	2	n/a	FILM	565	3	n/a	n/a	n/a	n/a	n/a	n/a
3251.426	n/a	RECOG_RESP	1625713	n/a	LTP132	ltpFR	3	2	n/a	FILM	565	n/a	n/a	n/a	n/a	n/a	n/a	n/a
3252.372	n/a	RECOG_CONF	1626186	n/a	LTP132	ltpFR	3	2	n/a	FILM	565	3	n/a	n/a	n/a	n/a	n/a	n/a
3253.998	n/a	RECOG_TARGET	1626999	n/a	LTP132	ltpFR	3	2	1	LIBRARY	816	4	0	n/a	n/a	n/a	n/a	n/a
3254.584	n/a	RECOG_RESP	1627292	n/a	LTP132	ltpFR	3	2	1	LIBRARY	816	n/a	0	n/a	n/a	n/a	n/a	n/a
3255.52	n/a	RECOG_CONF	1627760	n/a	LTP132	ltpFR	3	2	1	LIBRARY	816	4	0	n/a	n/a	n/a	n/a	n/a
3257.112	n/a	RECOG_LURE	1628556	n/a	LTP132	ltpFR	3	2	n/a	ARROW	40	5	n/a	n/a	n/a	n/a	n/a	n/a
3257.824	n/a	RECOG_RESP	1628912	n/a	LTP132	ltpFR	3	2	n/a	ARROW	40	n/a	n/a	n/a	n/a	n/a	n/a	n/a
3258.652	n/a	RECOG_CONF	1629326	n/a	LTP132	ltpFR	3	2	n/a	ARROW	40	5	n/a	n/a	n/a	n/a	n/a	n/a
3260.284	n/a	RECOG_TARGET	1630142	n/a	LTP132	ltpFR	3	2	1	FLY	586	5	1	n/a	n/a	n/a	n/a	n/a
3261.098	n/a	RECOG_RESP	1630549	n/a	LTP132	ltpFR	3	2	1	FLY	586	n/a	1	n/a	n/a	n/a	n/a	n/a
3262.112	n/a	RECOG_CONF	1631056	n/a	LTP132	ltpFR	3	2	1	FLY	586	5	1	n/a	n/a	n/a	n/a	n/a
3263.604	n/a	RECOG_TARGET	1631802	n/a	LTP132	ltpFR	3	2	0	MUG	930	2	0	n/a	n/a	n/a	n/a	n/a
3264.552	n/a	RECOG_RESP	1632276	n/a	LTP132	ltpFR	3	2	0	MUG	930	n/a	0	n/a	n/a	n/a	n/a	n/a
3265.702	n/a	RECOG_CONF	1632851	n/a	LTP132	ltpFR	3	2	0	MUG	930	2	0	n/a	n/a	n/a	n/a	n/a
3267.252	n/a	RECOG_TARGET	1633626	n/a	LTP132	ltpFR	3	2	-1	NIECE	952	5	-1	n/a	n/a	n/a	n/a	n/a
3267.894	n/a	RECOG_RESP	1633947	n/a	LTP132	ltpFR	3	2	-1	NIECE	952	n/a	-1	n/a	n/a	n/a	n/a	n/a
3268.722	n/a	RECOG_CONF	1634361	n/a	LTP132	ltpFR	3	2	-1	NIECE	952	5	-1	n/a	n/a	n/a	n/a	n/a
3270.332	n/a	RECOG_TARGET	1635166	n/a	LTP132	ltpFR	3	2	1	WAITER	1580	2	1	n/a	n/a	n/a	n/a	n/a
3271.522	n/a	RECOG_RESP	1635761	n/a	LTP132	ltpFR	3	2	1	WAITER	1580	n/a	1	n/a	n/a	n/a	n/a	n/a
3272.614	n/a	RECOG_CONF	1636307	n/a	LTP132	ltpFR	3	2	1	WAITER	1580	2	1	n/a	n/a	n/a	n/a	n/a
3274.21	n/a	RECOG_TARGET	1637105	n/a	LTP132	ltpFR	3	2	0	ATHLETE	52	3	1	n/a	n/a	n/a	n/a	n/a
3275.104	n/a	RECOG_RESP	1637552	n/a	LTP132	ltpFR	3	2	0	ATHLETE	52	n/a	1	n/a	n/a	n/a	n/a	n/a
3276.14	n/a	RECOG_CONF	1638070	n/a	LTP132	ltpFR	3	2	0	ATHLETE	52	3	1	n/a	n/a	n/a	n/a	n/a
3277.706	n/a	RECOG_TARGET	1638853	n/a	LTP132	ltpFR	3	2	1	DRIVEWAY	500	4	0	n/a	n/a	n/a	n/a	n/a
3278.392	n/a	RECOG_RESP	1639196	n/a	LTP132	ltpFR	3	2	1	DRIVEWAY	500	n/a	0	n/a	n/a	n/a	n/a	n/a
3279.238	n/a	RECOG_CONF	1639619	n/a	LTP132	ltpFR	3	2	1	DRIVEWAY	500	4	0	n/a	n/a	n/a	n/a	n/a
3281.018	n/a	RECOG_TARGET	1640509	n/a	LTP132	ltpFR	3	2	-1	COURT	391	2	-1	n/a	n/a	n/a	n/a	n/a
3281.672	n/a	RECOG_RESP	1640836	n/a	LTP132	ltpFR	3	2	-1	COURT	391	n/a	-1	n/a	n/a	n/a	n/a	n/a
3282.736	n/a	RECOG_CONF	1641368	n/a	LTP132	ltpFR	3	2	-1	COURT	391	2	-1	n/a	n/a	n/a	n/a	n/a
3284.248	n/a	RECOG_TARGET	1642124	n/a	LTP132	ltpFR	3	2	-1	LIGHTNING	820	5	-1	n/a	n/a	n/a	n/a	n/a
3284.976	n/a	RECOG_RESP	1642488	n/a	LTP132	ltpFR	3	2	-1	LIGHTNING	820	n/a	-1	n/a	n/a	n/a	n/a	n/a
3285.848	n/a	RECOG_CONF	1642924	n/a	LTP132	ltpFR	3	2	-1	LIGHTNING	820	5	-1	n/a	n/a	n/a	n/a	n/a
3287.486	n/a	RECOG_TARGET	1643743	n/a	LTP132	ltpFR	3	2	1	SWEATER	1419	4	0	n/a	n/a	n/a	n/a	n/a
3288.404	n/a	RECOG_RESP	1644202	n/a	LTP132	ltpFR	3	2	1	SWEATER	1419	n/a	0	n/a	n/a	n/a	n/a	n/a
3289.358	n/a	RECOG_CONF	1644679	n/a	LTP132	ltpFR	3	2	1	SWEATER	1419	4	0	n/a	n/a	n/a	n/a	n/a
3290.914	n/a	RECOG_TARGET	1645457	n/a	LTP132	ltpFR	3	2	1	HAWK	692	4	1	n/a	n/a	n/a	n/a	n/a
3291.604	n/a	RECOG_RESP	1645802	n/a	LTP132	ltpFR	3	2	1	HAWK	692	n/a	1	n/a	n/a	n/a	n/a	n/a
3292.482	n/a	RECOG_CONF	1646241	n/a	LTP132	ltpFR	3	2	1	HAWK	692	4	1	n/a	n/a	n/a	n/a	n/a
3294.028	n/a	RECOG_TARGET	1647014	n/a	LTP132	ltpFR	3	2	0	ASSISTANT	48	5	1	n/a	n/a	n/a	n/a	n/a
3294.62	n/a	RECOG_RESP	1647310	n/a	LTP132	ltpFR	3	2	0	ASSISTANT	48	n/a	1	n/a	n/a	n/a	n/a	n/a
3295.398	n/a	RECOG_CONF	1647699	n/a	LTP132	ltpFR	3	2	0	ASSISTANT	48	5	1	n/a	n/a	n/a	n/a	n/a
3297.016	n/a	RECOG_TARGET	1648508	n/a	LTP132	ltpFR	3	2	-1	OVEN	991	2	-1	n/a	n/a	n/a	n/a	n/a
3297.536	n/a	RECOG_RESP	1648768	n/a	LTP132	ltpFR	3	2	-1	OVEN	991	n/a	-1	n/a	n/a	n/a	n/a	n/a
3299.458	n/a	RECOG_CONF	1649729	n/a	LTP132	ltpFR	3	2	-1	OVEN	991	2	-1	n/a	n/a	n/a	n/a	n/a
3306.63	n/a	REC_START	1653315	n/a	LTP132	ltpFR	3	3	n/a	n/a	n/a	n/a	n/a	n/a	n/a	n/a	n/a	n/a
3306.654	n/a	RECOG_TARGET	1653327	n/a	LTP132	ltpFR	3	3	1	DAM	436	4	0	n/a	n/a	n/a	n/a	n/a
3307.364	n/a	RECOG_RESP	1653682	n/a	LTP132	ltpFR	3	3	1	DAM	436	n/a	0	n/a	n/a	n/a	n/a	n/a
3308.268	n/a	RECOG_CONF	1654134	n/a	LTP132	ltpFR	3	3	1	DAM	436	4	0	n/a	n/a	n/a	n/a	n/a
3309.892	n/a	RECOG_LURE	1654946	n/a	LTP132	ltpFR	3	3	n/a	LUGGAGE	847	3	n/a	n/a	n/a	n/a	n/a	n/a
3311.164	n/a	RECOG_RESP	1655582	n/a	LTP132	ltpFR	3	3	n/a	LUGGAGE	847	n/a	n/a	n/a	n/a	n/a	n/a	n/a
3311.988	n/a	RECOG_CONF	1655994	n/a	LTP132	ltpFR	3	3	n/a	LUGGAGE	847	3	n/a	n/a	n/a	n/a	n/a	n/a
3313.506	n/a	RECOG_LURE	1656753	n/a	LTP132	ltpFR	3	3	n/a	CAPTIVE	240	4	n/a	n/a	n/a	n/a	n/a	n/a
3314.312	n/a	RECOG_RESP	1657156	n/a	LTP132	ltpFR	3	3	n/a	CAPTIVE	240	n/a	n/a	n/a	n/a	n/a	n/a	n/a
3315.244	n/a	RECOG_CONF	1657622	n/a	LTP132	ltpFR	3	3	n/a	CAPTIVE	240	4	n/a	n/a	n/a	n/a	n/a	n/a
3316.644	n/a	RECOG_TARGET	1658322	n/a	LTP132	ltpFR	3	3	1	TART	1436	5	0	n/a	n/a	n/a	n/a	n/a
3317.344	n/a	RECOG_RESP	1658672	n/a	LTP132	ltpFR	3	3	1	TART	1436	n/a	0	n/a	n/a	n/a	n/a	n/a
3318.056	n/a	RECOG_CONF	1659028	n/a	LTP132	ltpFR	3	3	1	TART	1436	5	0	n/a	n/a	n/a	n/a	n/a
3319.632	n/a	RECOG_LURE	1659816	n/a	LTP132	ltpFR	3	3	n/a	TRENCH	1503	3	n/a	n/a	n/a	n/a	n/a	n/a
3320.312	n/a	RECOG_RESP	1660156	n/a	LTP132	ltpFR	3	3	n/a	TRENCH	1503	n/a	n/a	n/a	n/a	n/a	n/a	n/a
3321.136	n/a	RECOG_CONF	1660568	n/a	LTP132	ltpFR	3	3	n/a	TRENCH	1503	3	n/a	n/a	n/a	n/a	n/a	n/a
3322.812	n/a	RECOG_TARGET	1661406	n/a	LTP132	ltpFR	3	3	0	LOAF	835	5	0	n/a	n/a	n/a	n/a	n/a
3323.312	n/a	RECOG_RESP	1661656	n/a	LTP132	ltpFR	3	3	0	LOAF	835	n/a	0	n/a	n/a	n/a	n/a	n/a
3324.254	n/a	RECOG_CONF	1662127	n/a	LTP132	ltpFR	3	3	0	LOAF	835	5	0	n/a	n/a	n/a	n/a	n/a
3325.75	n/a	RECOG_TARGET	1662875	n/a	LTP132	ltpFR	3	3	0	SALOON	1228	5	1	n/a	n/a	n/a	n/a	n/a
3326.33	n/a	RECOG_RESP	1663165	n/a	LTP132	ltpFR	3	3	0	SALOON	1228	n/a	1	n/a	n/a	n/a	n/a	n/a
3327.202	n/a	RECOG_CONF	1663601	n/a	LTP132	ltpFR	3	3	0	SALOON	1228	5	1	n/a	n/a	n/a	n/a	n/a
3328.904	n/a	RECOG_TARGET	1664452	n/a	LTP132	ltpFR	3	3	-1	CHIEF	298	5	-1	n/a	n/a	n/a	n/a	n/a
3329.508	n/a	RECOG_RESP	1664754	n/a	LTP132	ltpFR	3	3	-1	CHIEF	298	n/a	-1	n/a	n/a	n/a	n/a	n/a
3330.566	n/a	RECOG_CONF	1665283	n/a	LTP132	ltpFR	3	3	-1	CHIEF	298	5	-1	n/a	n/a	n/a	n/a	n/a
3332.192	n/a	RECOG_TARGET	1666096	n/a	LTP132	ltpFR	3	3	0	TEACHER	1440	5	1	n/a	n/a	n/a	n/a	n/a
3332.804	n/a	RECOG_RESP	1666402	n/a	LTP132	ltpFR	3	3	0	TEACHER	1440	n/a	1	n/a	n/a	n/a	n/a	n/a
3333.752	n/a	RECOG_CONF	1666876	n/a	LTP132	ltpFR	3	3	0	TEACHER	1440	5	1	n/a	n/a	n/a	n/a	n/a
3335.332	n/a	RECOG_TARGET	1667666	n/a	LTP132	ltpFR	3	3	0	MARKER	870	5	0	n/a	n/a	n/a	n/a	n/a
3335.888	n/a	RECOG_RESP	1667944	n/a	LTP132	ltpFR	3	3	0	MARKER	870	n/a	0	n/a	n/a	n/a	n/a	n/a
3337.076	n/a	RECOG_CONF	1668538	n/a	LTP132	ltpFR	3	3	0	MARKER	870	5	0	n/a	n/a	n/a	n/a	n/a
3338.676	n/a	RECOG_LURE	1669338	n/a	LTP132	ltpFR	3	3	n/a	DOG	480	1	n/a	n/a	n/a	n/a	n/a	n/a
3339.442	n/a	RECOG_RESP	1669721	n/a	LTP132	ltpFR	3	3	n/a	DOG	480	n/a	n/a	n/a	n/a	n/a	n/a	n/a
3340.908	n/a	RECOG_CONF	1670454	n/a	LTP132	ltpFR	3	3	n/a	DOG	480	1	n/a	n/a	n/a	n/a	n/a	n/a
3342.496	n/a	RECOG_TARGET	1671248	n/a	LTP132	ltpFR	3	3	-1	VIDEO	1564	4	-1	n/a	n/a	n/a	n/a	n/a
3343.422	n/a	RECOG_RESP	1671711	n/a	LTP132	ltpFR	3	3	-1	VIDEO	1564	n/a	-1	n/a	n/a	n/a	n/a	n/a
3344.29	n/a	RECOG_CONF	1672145	n/a	LTP132	ltpFR	3	3	-1	VIDEO	1564	4	-1	n/a	n/a	n/a	n/a	n/a
3345.926	n/a	RECOG_TARGET	1672963	n/a	LTP132	ltpFR	3	3	0	FRAGRANCE	599	5	0	n/a	n/a	n/a	n/a	n/a
3346.904	n/a	RECOG_RESP	1673452	n/a	LTP132	ltpFR	3	3	0	FRAGRANCE	599	n/a	0	n/a	n/a	n/a	n/a	n/a
3347.78	n/a	RECOG_CONF	1673890	n/a	LTP132	ltpFR	3	3	0	FRAGRANCE	599	5	0	n/a	n/a	n/a	n/a	n/a
3349.458	n/a	RECOG_TARGET	1674729	n/a	LTP132	ltpFR	3	3	1	EMPEROR	529	1	1	n/a	n/a	n/a	n/a	n/a
3350.958	n/a	RECOG_RESP	1675479	n/a	LTP132	ltpFR	3	3	1	EMPEROR	529	n/a	1	n/a	n/a	n/a	n/a	n/a
3351.84	n/a	RECOG_CONF	1675920	n/a	LTP132	ltpFR	3	3	1	EMPEROR	529	1	1	n/a	n/a	n/a	n/a	n/a
3353.444	n/a	RECOG_TARGET	1676722	n/a	LTP132	ltpFR	3	3	0	BROOM	178	5	1	n/a	n/a	n/a	n/a	n/a
3354.136	n/a	RECOG_RESP	1677068	n/a	LTP132	ltpFR	3	3	0	BROOM	178	n/a	1	n/a	n/a	n/a	n/a	n/a
3354.952	n/a	RECOG_CONF	1677476	n/a	LTP132	ltpFR	3	3	0	BROOM	178	5	1	n/a	n/a	n/a	n/a	n/a
3356.706	n/a	RECOG_LURE	1678353	n/a	LTP132	ltpFR	3	3	n/a	PASTRY	1022	3	n/a	n/a	n/a	n/a	n/a	n/a
3357.45	n/a	RECOG_RESP	1678725	n/a	LTP132	ltpFR	3	3	n/a	PASTRY	1022	n/a	n/a	n/a	n/a	n/a	n/a	n/a
3358.382	n/a	RECOG_CONF	1679191	n/a	LTP132	ltpFR	3	3	n/a	PASTRY	1022	3	n/a	n/a	n/a	n/a	n/a	n/a
3360.102	n/a	RECOG_TARGET	1680051	n/a	LTP132	ltpFR	3	3	0	FAN	551	5	1	n/a	n/a	n/a	n/a	n/a
3360.702	n/a	RECOG_RESP	1680351	n/a	LTP132	ltpFR	3	3	0	FAN	551	n/a	1	n/a	n/a	n/a	n/a	n/a
3361.62	n/a	RECOG_CONF	1680810	n/a	LTP132	ltpFR	3	3	0	FAN	551	5	1	n/a	n/a	n/a	n/a	n/a
3363.158	n/a	RECOG_TARGET	1681579	n/a	LTP132	ltpFR	3	3	0	ELM	527	5	1	n/a	n/a	n/a	n/a	n/a
3363.72	n/a	RECOG_RESP	1681860	n/a	LTP132	ltpFR	3	3	0	ELM	527	n/a	1	n/a	n/a	n/a	n/a	n/a
3364.528	n/a	RECOG_CONF	1682264	n/a	LTP132	ltpFR	3	3	0	ELM	527	5	1	n/a	n/a	n/a	n/a	n/a
3366.154	n/a	RECOG_TARGET	1683077	n/a	LTP132	ltpFR	3	3	-1	SWAMP	1416	5	-1	n/a	n/a	n/a	n/a	n/a
3366.594	n/a	RECOG_RESP	1683297	n/a	LTP132	ltpFR	3	3	-1	SWAMP	1416	n/a	-1	n/a	n/a	n/a	n/a	n/a
3367.488	n/a	RECOG_CONF	1683744	n/a	LTP132	ltpFR	3	3	-1	SWAMP	1416	5	-1	n/a	n/a	n/a	n/a	n/a
3368.942	n/a	RECOG_TARGET	1684471	n/a	LTP132	ltpFR	3	3	-1	OCEAN	970	5	-1	n/a	n/a	n/a	n/a	n/a
3369.554	n/a	RECOG_RESP	1684777	n/a	LTP132	ltpFR	3	3	-1	OCEAN	970	n/a	-1	n/a	n/a	n/a	n/a	n/a
3370.354	n/a	RECOG_CONF	1685177	n/a	LTP132	ltpFR	3	3	-1	OCEAN	970	5	-1	n/a	n/a	n/a	n/a	n/a
3373.528	n/a	REC_START	1686764	n/a	LTP132	ltpFR	3	4	n/a	n/a	n/a	n/a	n/a	n/a	n/a	n/a	n/a	n/a
3373.562	n/a	RECOG_TARGET	1686781	n/a	LTP132	ltpFR	3	4	-1	CARPENTER	246	5	-1	n/a	n/a	n/a	n/a	n/a
3374.196	n/a	RECOG_RESP	1687098	n/a	LTP132	ltpFR	3	4	-1	CARPENTER	246	n/a	-1	n/a	n/a	n/a	n/a	n/a
3374.968	n/a	RECOG_CONF	1687484	n/a	LTP132	ltpFR	3	4	-1	CARPENTER	246	5	-1	n/a	n/a	n/a	n/a	n/a
3376.684	n/a	RECOG_LURE	1688342	n/a	LTP132	ltpFR	3	4	n/a	COPIER	377	5	n/a	n/a	n/a	n/a	n/a	n/a
3377.416	n/a	RECOG_RESP	1688708	n/a	LTP132	ltpFR	3	4	n/a	COPIER	377	n/a	n/a	n/a	n/a	n/a	n/a	n/a
3378.322	n/a	RECOG_CONF	1689161	n/a	LTP132	ltpFR	3	4	n/a	COPIER	377	5	n/a	n/a	n/a	n/a	n/a	n/a
3379.754	n/a	RECOG_TARGET	1689877	n/a	LTP132	ltpFR	3	4	1	MOOSE	915	5	1	n/a	n/a	n/a	n/a	n/a
3380.326	n/a	RECOG_RESP	1690163	n/a	LTP132	ltpFR	3	4	1	MOOSE	915	n/a	1	n/a	n/a	n/a	n/a	n/a
3381.216	n/a	RECOG_CONF	1690608	n/a	LTP132	ltpFR	3	4	1	MOOSE	915	5	1	n/a	n/a	n/a	n/a	n/a
3382.734	n/a	RECOG_TARGET	1691367	n/a	LTP132	ltpFR	3	4	0	SAGE	1222	5	0	n/a	n/a	n/a	n/a	n/a
3383.264	n/a	RECOG_RESP	1691632	n/a	LTP132	ltpFR	3	4	0	SAGE	1222	n/a	0	n/a	n/a	n/a	n/a	n/a
3384.1	n/a	RECOG_CONF	1692050	n/a	LTP132	ltpFR	3	4	0	SAGE	1222	5	0	n/a	n/a	n/a	n/a	n/a
3385.706	n/a	RECOG_LURE	1692853	n/a	LTP132	ltpFR	3	4	n/a	ADOLESCENT	7	4	n/a	n/a	n/a	n/a	n/a	n/a
3386.492	n/a	RECOG_RESP	1693246	n/a	LTP132	ltpFR	3	4	n/a	ADOLESCENT	7	n/a	n/a	n/a	n/a	n/a	n/a	n/a
3387.434	n/a	RECOG_CONF	1693717	n/a	LTP132	ltpFR	3	4	n/a	ADOLESCENT	7	4	n/a	n/a	n/a	n/a	n/a	n/a
3389.128	n/a	RECOG_TARGET	1694564	n/a	LTP132	ltpFR	3	4	0	LIPSTICK	829	5	0	n/a	n/a	n/a	n/a	n/a
3389.668	n/a	RECOG_RESP	1694834	n/a	LTP132	ltpFR	3	4	0	LIPSTICK	829	n/a	0	n/a	n/a	n/a	n/a	n/a
3390.422	n/a	RECOG_CONF	1695211	n/a	LTP132	ltpFR	3	4	0	LIPSTICK	829	5	0	n/a	n/a	n/a	n/a	n/a
3392.056	n/a	RECOG_LURE	1696028	n/a	LTP132	ltpFR	3	4	n/a	OPERATOR	979	4	n/a	n/a	n/a	n/a	n/a	n/a
3392.69	n/a	RECOG_RESP	1696345	n/a	LTP132	ltpFR	3	4	n/a	OPERATOR	979	n/a	n/a	n/a	n/a	n/a	n/a	n/a
3393.394	n/a	RECOG_CONF	1696697	n/a	LTP132	ltpFR	3	4	n/a	OPERATOR	979	4	n/a	n/a	n/a	n/a	n/a	n/a
3394.912	n/a	RECOG_TARGET	1697456	n/a	LTP132	ltpFR	3	4	0	HAY	693	5	0	n/a	n/a	n/a	n/a	n/a
3395.63	n/a	RECOG_RESP	1697815	n/a	LTP132	ltpFR	3	4	0	HAY	693	n/a	0	n/a	n/a	n/a	n/a	n/a
3396.426	n/a	RECOG_CONF	1698213	n/a	LTP132	ltpFR	3	4	0	HAY	693	5	0	n/a	n/a	n/a	n/a	n/a
3397.926	n/a	RECOG_LURE	1698963	n/a	LTP132	ltpFR	3	4	n/a	OZONE	996	4	n/a	n/a	n/a	n/a	n/a	n/a
3398.596	n/a	RECOG_RESP	1699298	n/a	LTP132	ltpFR	3	4	n/a	OZONE	996	n/a	n/a	n/a	n/a	n/a	n/a	n/a
3399.486	n/a	RECOG_CONF	1699743	n/a	LTP132	ltpFR	3	4	n/a	OZONE	996	4	n/a	n/a	n/a	n/a	n/a	n/a
3401.038	n/a	RECOG_TARGET	1700519	n/a	LTP132	ltpFR	3	4	-1	KNAPSACK	783	5	-1	n/a	n/a	n/a	n/a	n/a
3402.244	n/a	RECOG_RESP	1701122	n/a	LTP132	ltpFR	3	4	-1	KNAPSACK	783	n/a	-1	n/a	n/a	n/a	n/a	n/a
3403.144	n/a	RECOG_CONF	1701572	n/a	LTP132	ltpFR	3	4	-1	KNAPSACK	783	5	-1	n/a	n/a	n/a	n/a	n/a
3404.826	n/a	RECOG_TARGET	1702413	n/a	LTP132	ltpFR	3	4	0	CHIP	303	5	0	n/a	n/a	n/a	n/a	n/a
3405.654	n/a	RECOG_RESP	1702827	n/a	LTP132	ltpFR	3	4	0	CHIP	303	n/a	0	n/a	n/a	n/a	n/a	n/a
3406.418	n/a	RECOG_CONF	1703209	n/a	LTP132	ltpFR	3	4	0	CHIP	303	5	0	n/a	n/a	n/a	n/a	n/a
3407.938	n/a	RECOG_TARGET	1703969	n/a	LTP132	ltpFR	3	4	1	SPAGHETTI	1346	5	0	n/a	n/a	n/a	n/a	n/a
3408.534	n/a	RECOG_RESP	1704267	n/a	LTP132	ltpFR	3	4	1	SPAGHETTI	1346	n/a	0	n/a	n/a	n/a	n/a	n/a
3409.376	n/a	RECOG_CONF	1704688	n/a	LTP132	ltpFR	3	4	1	SPAGHETTI	1346	5	0	n/a	n/a	n/a	n/a	n/a
3410.844	n/a	RECOG_TARGET	1705422	n/a	LTP132	ltpFR	3	4	0	BUG	187	5	0	n/a	n/a	n/a	n/a	n/a
3411.474	n/a	RECOG_RESP	1705737	n/a	LTP132	ltpFR	3	4	0	BUG	187	n/a	0	n/a	n/a	n/a	n/a	n/a
3412.414	n/a	RECOG_CONF	1706207	n/a	LTP132	ltpFR	3	4	0	BUG	187	5	0	n/a	n/a	n/a	n/a	n/a
3414.006	n/a	RECOG_TARGET	1707003	n/a	LTP132	ltpFR	3	4	0	WOLF	1619	5	1	n/a	n/a	n/a	n/a	n/a
3414.548	n/a	RECOG_RESP	1707274	n/a	LTP132	ltpFR	3	4	0	WOLF	1619	n/a	1	n/a	n/a	n/a	n/a	n/a
3415.202	n/a	RECOG_CONF	1707601	n/a	LTP132	ltpFR	3	4	0	WOLF	1619	5	1	n/a	n/a	n/a	n/a	n/a
3416.886	n/a	RECOG_LURE	1708443	n/a	LTP132	ltpFR	3	4	n/a	SPY	1360	4	n/a	n/a	n/a	n/a	n/a	n/a
3417.45	n/a	RECOG_RESP	1708725	n/a	LTP132	ltpFR	3	4	n/a	SPY	1360	n/a	n/a	n/a	n/a	n/a	n/a	n/a
3418.332	n/a	RECOG_CONF	1709166	n/a	LTP132	ltpFR	3	4	n/a	SPY	1360	4	n/a	n/a	n/a	n/a	n/a	n/a
3419.684	n/a	RECOG_LURE	1709842	n/a	LTP132	ltpFR	3	4	n/a	BRAN	167	1	n/a	n/a	n/a	n/a	n/a	n/a
3420.556	n/a	RECOG_RESP	1710278	n/a	LTP132	ltpFR	3	4	n/a	BRAN	167	n/a	n/a	n/a	n/a	n/a	n/a	n/a
3421.662	n/a	RECOG_CONF	1710831	n/a	LTP132	ltpFR	3	4	n/a	BRAN	167	1	n/a	n/a	n/a	n/a	n/a	n/a
3423.23	n/a	RECOG_LURE	1711615	n/a	LTP132	ltpFR	3	4	n/a	CINNAMON	310	4	n/a	n/a	n/a	n/a	n/a	n/a
3423.748	n/a	RECOG_RESP	1711874	n/a	LTP132	ltpFR	3	4	n/a	CINNAMON	310	n/a	n/a	n/a	n/a	n/a	n/a	n/a
3424.846	n/a	RECOG_CONF	1712423	n/a	LTP132	ltpFR	3	4	n/a	CINNAMON	310	4	n/a	n/a	n/a	n/a	n/a	n/a
3426.244	n/a	RECOG_LURE	1713122	n/a	LTP132	ltpFR	3	4	n/a	SENATOR	1268	1	n/a	n/a	n/a	n/a	n/a	n/a
3426.818	n/a	RECOG_RESP_VV	1713409	n/a	LTP132	ltpFR	3	4	n/a	SENATOR	1268	n/a	n/a	n/a	n/a	n/a	n/a	n/a
3428.422	n/a	RECOG_RESP	1714211	n/a	LTP132	ltpFR	3	4	n/a	SENATOR	1268	n/a	n/a	n/a	n/a	n/a	n/a	n/a
3429.422	n/a	RECOG_CONF	1714711	n/a	LTP132	ltpFR	3	4	n/a	SENATOR	1268	1	n/a	n/a	n/a	n/a	n/a	n/a
3430.886	n/a	RECOG_TARGET	1715443	n/a	LTP132	ltpFR	3	4	0	ESCALATOR	539	5	1	n/a	n/a	n/a	n/a	n/a
3431.676	n/a	RECOG_RESP	1715838	n/a	LTP132	ltpFR	3	4	0	ESCALATOR	539	n/a	1	n/a	n/a	n/a	n/a	n/a
3432.43	n/a	RECOG_CONF	1716215	n/a	LTP132	ltpFR	3	4	0	ESCALATOR	539	5	1	n/a	n/a	n/a	n/a	n/a
3434.134	n/a	RECOG_TARGET	1717067	n/a	LTP132	ltpFR	3	4	0	PAINT	1003	5	0	n/a	n/a	n/a	n/a	n/a
3434.724	n/a	RECOG_RESP	1717362	n/a	LTP132	ltpFR	3	4	0	PAINT	1003	n/a	0	n/a	n/a	n/a	n/a	n/a
3435.742	n/a	RECOG_CONF	1717871	n/a	LTP132	ltpFR	3	4	0	PAINT	1003	5	0	n/a	n/a	n/a	n/a	n/a
3438.926	n/a	REC_START	1719463	n/a	LTP132	ltpFR	3	5	n/a	n/a	n/a	n/a	n/a	n/a	n/a	n/a	n/a	n/a
3438.954	n/a	RECOG_LURE	1719477	n/a	LTP132	ltpFR	3	5	n/a	TRUMPET	1513	1	n/a	n/a	n/a	n/a	n/a	n/a
3439.828	n/a	RECOG_RESP	1719914	n/a	LTP132	ltpFR	3	5	n/a	TRUMPET	1513	n/a	n/a	n/a	n/a	n/a	n/a	n/a
3440.61	n/a	RECOG_CONF	1720305	n/a	LTP132	ltpFR	3	5	n/a	TRUMPET	1513	1	n/a	n/a	n/a	n/a	n/a	n/a
3442.2	n/a	RECOG_TARGET	1721100	n/a	LTP132	ltpFR	3	5	-1	FORT	595	2	-1	n/a	n/a	n/a	n/a	n/a
3443.054	n/a	RECOG_RESP	1721527	n/a	LTP132	ltpFR	3	5	-1	FORT	595	n/a	-1	n/a	n/a	n/a	n/a	n/a
3443.916	n/a	RECOG_CONF	1721958	n/a	LTP132	ltpFR	3	5	-1	FORT	595	2	-1	n/a	n/a	n/a	n/a	n/a
3445.414	n/a	RECOG_LURE	1722707	n/a	LTP132	ltpFR	3	5	n/a	FUR	615	5	n/a	n/a	n/a	n/a	n/a	n/a
3446.206	n/a	RECOG_RESP	1723103	n/a	LTP132	ltpFR	3	5	n/a	FUR	615	n/a	n/a	n/a	n/a	n/a	n/a	n/a
3447.182	n/a	RECOG_CONF	1723591	n/a	LTP132	ltpFR	3	5	n/a	FUR	615	5	n/a	n/a	n/a	n/a	n/a	n/a
3448.75	n/a	RECOG_LURE	1724375	n/a	LTP132	ltpFR	3	5	n/a	CLERK	321	5	n/a	n/a	n/a	n/a	n/a	n/a
3449.382	n/a	RECOG_RESP	1724691	n/a	LTP132	ltpFR	3	5	n/a	CLERK	321	n/a	n/a	n/a	n/a	n/a	n/a	n/a
3450.188	n/a	RECOG_CONF	1725094	n/a	LTP132	ltpFR	3	5	n/a	CLERK	321	5	n/a	n/a	n/a	n/a	n/a	n/a
3451.888	n/a	RECOG_TARGET	1725944	n/a	LTP132	ltpFR	3	5	0	BREAD	170	5	0	n/a	n/a	n/a	n/a	n/a
3452.426	n/a	RECOG_RESP	1726213	n/a	LTP132	ltpFR	3	5	0	BREAD	170	n/a	0	n/a	n/a	n/a	n/a	n/a
3453.256	n/a	RECOG_CONF	1726628	n/a	LTP132	ltpFR	3	5	0	BREAD	170	5	0	n/a	n/a	n/a	n/a	n/a
3454.894	n/a	RECOG_LURE	1727447	n/a	LTP132	ltpFR	3	5	n/a	PENGUIN	1044	5	n/a	n/a	n/a	n/a	n/a	n/a
3455.638	n/a	RECOG_RESP	1727819	n/a	LTP132	ltpFR	3	5	n/a	PENGUIN	1044	n/a	n/a	n/a	n/a	n/a	n/a	n/a
3456.394	n/a	RECOG_CONF	1728197	n/a	LTP132	ltpFR	3	5	n/a	PENGUIN	1044	5	n/a	n/a	n/a	n/a	n/a	n/a
3458.124	n/a	RECOG_TARGET	1729062	n/a	LTP132	ltpFR	3	5	-1	CHAUFFEUR	283	5	-1	n/a	n/a	n/a	n/a	n/a
3458.822	n/a	RECOG_RESP	1729411	n/a	LTP132	ltpFR	3	5	-1	CHAUFFEUR	283	n/a	-1	n/a	n/a	n/a	n/a	n/a
3459.814	n/a	RECOG_CONF	1729907	n/a	LTP132	ltpFR	3	5	-1	CHAUFFEUR	283	5	-1	n/a	n/a	n/a	n/a	n/a
3461.338	n/a	RECOG_TARGET	1730669	n/a	LTP132	ltpFR	3	5	-1	RAT	1169	5	-1	n/a	n/a	n/a	n/a	n/a
3461.776	n/a	RECOG_RESP	1730888	n/a	LTP132	ltpFR	3	5	-1	RAT	1169	n/a	-1	n/a	n/a	n/a	n/a	n/a
3462.698	n/a	RECOG_CONF	1731349	n/a	LTP132	ltpFR	3	5	-1	RAT	1169	5	-1	n/a	n/a	n/a	n/a	n/a
3464.308	n/a	RECOG_TARGET	1732154	n/a	LTP132	ltpFR	3	5	1	TWINE	1529	5	0	n/a	n/a	n/a	n/a	n/a
3464.862	n/a	RECOG_RESP	1732431	n/a	LTP132	ltpFR	3	5	1	TWINE	1529	n/a	0	n/a	n/a	n/a	n/a	n/a
3465.78	n/a	RECOG_CONF	1732890	n/a	LTP132	ltpFR	3	5	1	TWINE	1529	5	0	n/a	n/a	n/a	n/a	n/a
3467.322	n/a	RECOG_TARGET	1733661	n/a	LTP132	ltpFR	3	5	-1	BEAVER	109	5	-1	n/a	n/a	n/a	n/a	n/a
3467.832	n/a	RECOG_RESP	1733916	n/a	LTP132	ltpFR	3	5	-1	BEAVER	109	n/a	-1	n/a	n/a	n/a	n/a	n/a
3468.774	n/a	RECOG_CONF	1734387	n/a	LTP132	ltpFR	3	5	-1	BEAVER	109	5	-1	n/a	n/a	n/a	n/a	n/a
3470.418	n/a	RECOG_TARGET	1735209	n/a	LTP132	ltpFR	3	5	1	SUGAR	1401	5	0	n/a	n/a	n/a	n/a	n/a
3470.902	n/a	RECOG_RESP	1735451	n/a	LTP132	ltpFR	3	5	1	SUGAR	1401	n/a	0	n/a	n/a	n/a	n/a	n/a
3471.706	n/a	RECOG_CONF	1735853	n/a	LTP132	ltpFR	3	5	1	SUGAR	1401	5	0	n/a	n/a	n/a	n/a	n/a
3473.464	n/a	RECOG_TARGET	1736732	n/a	LTP132	ltpFR	3	5	-1	BEET	115	2	-1	n/a	n/a	n/a	n/a	n/a
3474.13	n/a	RECOG_RESP	1737065	n/a	LTP132	ltpFR	3	5	-1	BEET	115	n/a	-1	n/a	n/a	n/a	n/a	n/a
3475.08	n/a	RECOG_CONF	1737540	n/a	LTP132	ltpFR	3	5	-1	BEET	115	2	-1	n/a	n/a	n/a	n/a	n/a
3476.636	n/a	RECOG_LURE	1738318	n/a	LTP132	ltpFR	3	5	n/a	MISSILE	900	5	n/a	n/a	n/a	n/a	n/a	n/a
3477.382	n/a	RECOG_RESP	1738691	n/a	LTP132	ltpFR	3	5	n/a	MISSILE	900	n/a	n/a	n/a	n/a	n/a	n/a	n/a
3478.312	n/a	RECOG_CONF	1739156	n/a	LTP132	ltpFR	3	5	n/a	MISSILE	900	5	n/a	n/a	n/a	n/a	n/a	n/a
3479.798	n/a	RECOG_TARGET	1739899	n/a	LTP132	ltpFR	3	5	1	MAILMAN	858	1	1	n/a	n/a	n/a	n/a	n/a
3480.794	n/a	RECOG_RESP	1740397	n/a	LTP132	ltpFR	3	5	1	MAILMAN	858	n/a	1	n/a	n/a	n/a	n/a	n/a
3481.744	n/a	RECOG_CONF	1740872	n/a	LTP132	ltpFR	3	5	1	MAILMAN	858	1	1	n/a	n/a	n/a	n/a	n/a
3483.17	n/a	RECOG_TARGET	1741585	n/a	LTP132	ltpFR	3	5	1	POWDER	1117	4	0	n/a	n/a	n/a	n/a	n/a
3484.014	n/a	RECOG_RESP	1742007	n/a	LTP132	ltpFR	3	5	1	POWDER	1117	n/a	0	n/a	n/a	n/a	n/a	n/a
3484.738	n/a	RECOG_CONF	1742369	n/a	LTP132	ltpFR	3	5	1	POWDER	1117	4	0	n/a	n/a	n/a	n/a	n/a
3486.292	n/a	RECOG_TARGET	1743146	n/a	LTP132	ltpFR	3	5	0	PIER	1063	3	1	n/a	n/a	n/a	n/a	n/a
3487.244	n/a	RECOG_RESP	1743622	n/a	LTP132	ltpFR	3	5	0	PIER	1063	n/a	1	n/a	n/a	n/a	n/a	n/a
3488.28	n/a	RECOG_CONF	1744140	n/a	LTP132	ltpFR	3	5	0	PIER	1063	3	1	n/a	n/a	n/a	n/a	n/a
3489.878	n/a	RECOG_TARGET	1744939	n/a	LTP132	ltpFR	3	5	0	RAIL	1161	5	1	n/a	n/a	n/a	n/a	n/a
3490.4	n/a	RECOG_RESP	1745200	n/a	LTP132	ltpFR	3	5	0	RAIL	1161	n/a	1	n/a	n/a	n/a	n/a	n/a
3491.176	n/a	RECOG_CONF	1745588	n/a	LTP132	ltpFR	3	5	0	RAIL	1161	5	1	n/a	n/a	n/a	n/a	n/a
3493.0	n/a	RECOG_TARGET	1746500	n/a	LTP132	ltpFR	3	5	1	COOLER	375	5	0	n/a	n/a	n/a	n/a	n/a
3493.498	n/a	RECOG_RESP	1746749	n/a	LTP132	ltpFR	3	5	1	COOLER	375	n/a	0	n/a	n/a	n/a	n/a	n/a
3494.446	n/a	RECOG_CONF	1747223	n/a	LTP132	ltpFR	3	5	1	COOLER	375	5	0	n/a	n/a	n/a	n/a	n/a
3496.054	n/a	RECOG_TARGET	1748027	n/a	LTP132	ltpFR	3	5	0	DELINQUENT	445	5	1	n/a	n/a	n/a	n/a	n/a
3496.556	n/a	RECOG_RESP	1748278	n/a	LTP132	ltpFR	3	5	0	DELINQUENT	445	n/a	1	n/a	n/a	n/a	n/a	n/a
3497.512	n/a	RECOG_CONF	1748756	n/a	LTP132	ltpFR	3	5	0	DELINQUENT	445	5	1	n/a	n/a	n/a	n/a	n/a
3499.244	n/a	RECOG_TARGET	1749622	n/a	LTP132	ltpFR	3	5	0	INTESTINE	742	5	0	n/a	n/a	n/a	n/a	n/a
3499.802	n/a	RECOG_RESP	1749901	n/a	LTP132	ltpFR	3	5	0	INTESTINE	742	n/a	0	n/a	n/a	n/a	n/a	n/a
3500.664	n/a	RECOG_CONF	1750332	n/a	LTP132	ltpFR	3	5	0	INTESTINE	742	5	0	n/a	n/a	n/a	n/a	n/a
3504.194	n/a	REC_START	1752097	n/a	LTP132	ltpFR	3	6	n/a	n/a	n/a	n/a	n/a	n/a	n/a	n/a	n/a	n/a
3504.22	n/a	RECOG_TARGET	1752110	n/a	LTP132	ltpFR	3	6	-1	BULB	192	5	-1	n/a	n/a	n/a	n/a	n/a
3504.786	n/a	RECOG_RESP	1752393	n/a	LTP132	ltpFR	3	6	-1	BULB	192	n/a	-1	n/a	n/a	n/a	n/a	n/a
3505.774	n/a	RECOG_CONF	1752887	n/a	LTP132	ltpFR	3	6	-1	BULB	192	5	-1	n/a	n/a	n/a	n/a	n/a
3507.226	n/a	RECOG_TARGET	1753613	n/a	LTP132	ltpFR	3	6	1	PUDDLE	1140	5	0	n/a	n/a	n/a	n/a	n/a
3507.77	n/a	RECOG_RESP	1753885	n/a	LTP132	ltpFR	3	6	1	PUDDLE	1140	n/a	0	n/a	n/a	n/a	n/a	n/a
3508.582	n/a	RECOG_CONF	1754291	n/a	LTP132	ltpFR	3	6	1	PUDDLE	1140	5	0	n/a	n/a	n/a	n/a	n/a
3510.222	n/a	RECOG_LURE	1755111	n/a	LTP132	ltpFR	3	6	n/a	RECEPTIONIST	1174	2	n/a	n/a	n/a	n/a	n/a	n/a
3510.928	n/a	RECOG_RESP	1755464	n/a	LTP132	ltpFR	3	6	n/a	RECEPTIONIST	1174	n/a	n/a	n/a	n/a	n/a	n/a	n/a
3511.888	n/a	RECOG_CONF	1755944	n/a	LTP132	ltpFR	3	6	n/a	RECEPTIONIST	1174	2	n/a	n/a	n/a	n/a	n/a	n/a
3513.476	n/a	RECOG_TARGET	1756738	n/a	LTP132	ltpFR	3	6	1	WHALE	1601	5	1	n/a	n/a	n/a	n/a	n/a
3513.994	n/a	RECOG_RESP	1756997	n/a	LTP132	ltpFR	3	6	1	WHALE	1601	n/a	1	n/a	n/a	n/a	n/a	n/a
3514.826	n/a	RECOG_CONF	1757413	n/a	LTP132	ltpFR	3	6	1	WHALE	1601	5	1	n/a	n/a	n/a	n/a	n/a
3516.416	n/a	RECOG_TARGET	1758208	n/a	LTP132	ltpFR	3	6	0	TIDE	1465	5	0	n/a	n/a	n/a	n/a	n/a
3516.908	n/a	RECOG_RESP	1758454	n/a	LTP132	ltpFR	3	6	0	TIDE	1465	n/a	0	n/a	n/a	n/a	n/a	n/a
3517.768	n/a	RECOG_CONF	1758884	n/a	LTP132	ltpFR	3	6	0	TIDE	1465	5	0	n/a	n/a	n/a	n/a	n/a
3519.238	n/a	RECOG_TARGET	1759619	n/a	LTP132	ltpFR	3	6	0	BUFFALO	186	5	1	n/a	n/a	n/a	n/a	n/a
3519.7	n/a	RECOG_RESP	1759850	n/a	LTP132	ltpFR	3	6	0	BUFFALO	186	n/a	1	n/a	n/a	n/a	n/a	n/a
3520.622	n/a	RECOG_CONF	1760311	n/a	LTP132	ltpFR	3	6	0	BUFFALO	186	5	1	n/a	n/a	n/a	n/a	n/a
3522.042	n/a	RECOG_TARGET	1761021	n/a	LTP132	ltpFR	3	6	1	RECORD	1176	5	0	n/a	n/a	n/a	n/a	n/a
3522.502	n/a	RECOG_RESP	1761251	n/a	LTP132	ltpFR	3	6	1	RECORD	1176	n/a	0	n/a	n/a	n/a	n/a	n/a
3523.416	n/a	RECOG_CONF	1761708	n/a	LTP132	ltpFR	3	6	1	RECORD	1176	5	0	n/a	n/a	n/a	n/a	n/a
3524.78	n/a	RECOG_TARGET	1762390	n/a	LTP132	ltpFR	3	6	-1	BIBLE	124	5	-1	n/a	n/a	n/a	n/a	n/a
3525.362	n/a	RECOG_RESP	1762681	n/a	LTP132	ltpFR	3	6	-1	BIBLE	124	n/a	-1	n/a	n/a	n/a	n/a	n/a
3526.26	n/a	RECOG_CONF	1763130	n/a	LTP132	ltpFR	3	6	-1	BIBLE	124	5	-1	n/a	n/a	n/a	n/a	n/a
3527.694	n/a	RECOG_TARGET	1763847	n/a	LTP132	ltpFR	3	6	-1	JOINT	758	5	-1	n/a	n/a	n/a	n/a	n/a
3528.098	n/a	RECOG_RESP	1764049	n/a	LTP132	ltpFR	3	6	-1	JOINT	758	n/a	-1	n/a	n/a	n/a	n/a	n/a
3528.864	n/a	RECOG_CONF	1764432	n/a	LTP132	ltpFR	3	6	-1	JOINT	758	5	-1	n/a	n/a	n/a	n/a	n/a
3530.392	n/a	RECOG_TARGET	1765196	n/a	LTP132	ltpFR	3	6	1	SUSPECT	1415	5	0	n/a	n/a	n/a	n/a	n/a
3530.88	n/a	RECOG_RESP	1765440	n/a	LTP132	ltpFR	3	6	1	SUSPECT	1415	n/a	0	n/a	n/a	n/a	n/a	n/a
3531.736	n/a	RECOG_CONF	1765868	n/a	LTP132	ltpFR	3	6	1	SUSPECT	1415	5	0	n/a	n/a	n/a	n/a	n/a
3533.322	n/a	RECOG_TARGET	1766661	n/a	LTP132	ltpFR	3	6	1	GANGSTER	620	5	1	n/a	n/a	n/a	n/a	n/a
3533.944	n/a	RECOG_RESP	1766972	n/a	LTP132	ltpFR	3	6	1	GANGSTER	620	n/a	1	n/a	n/a	n/a	n/a	n/a
3534.81	n/a	RECOG_CONF	1767405	n/a	LTP132	ltpFR	3	6	1	GANGSTER	620	5	1	n/a	n/a	n/a	n/a	n/a
3536.292	n/a	RECOG_LURE	1768146	n/a	LTP132	ltpFR	3	6	n/a	ASH	44	5	n/a	n/a	n/a	n/a	n/a	n/a
3536.95	n/a	RECOG_RESP	1768475	n/a	LTP132	ltpFR	3	6	n/a	ASH	44	n/a	n/a	n/a	n/a	n/a	n/a	n/a
3537.672	n/a	RECOG_CONF	1768836	n/a	LTP132	ltpFR	3	6	n/a	ASH	44	5	n/a	n/a	n/a	n/a	n/a	n/a
3539.33	n/a	RECOG_TARGET	1769665	n/a	LTP132	ltpFR	3	6	0	ACROBAT	4	5	1	n/a	n/a	n/a	n/a	n/a
3540.058	n/a	RECOG_RESP	1770029	n/a	LTP132	ltpFR	3	6	0	ACROBAT	4	n/a	1	n/a	n/a	n/a	n/a	n/a
3540.896	n/a	RECOG_CONF	1770448	n/a	LTP132	ltpFR	3	6	0	ACROBAT	4	5	1	n/a	n/a	n/a	n/a	n/a
3542.32	n/a	RECOG_TARGET	1771160	n/a	LTP132	ltpFR	3	6	1	PILL	1068	5	0	n/a	n/a	n/a	n/a	n/a
3542.91	n/a	RECOG_RESP	1771455	n/a	LTP132	ltpFR	3	6	1	PILL	1068	n/a	0	n/a	n/a	n/a	n/a	n/a
3543.8	n/a	RECOG_CONF	1771900	n/a	LTP132	ltpFR	3	6	1	PILL	1068	5	0	n/a	n/a	n/a	n/a	n/a
3545.25	n/a	RECOG_TARGET	1772625	n/a	LTP132	ltpFR	3	6	1	CANARY	227	4	1	n/a	n/a	n/a	n/a	n/a
3545.716	n/a	RECOG_RESP	1772858	n/a	LTP132	ltpFR	3	6	1	CANARY	227	n/a	1	n/a	n/a	n/a	n/a	n/a
3546.448	n/a	RECOG_CONF	1773224	n/a	LTP132	ltpFR	3	6	1	CANARY	227	4	1	n/a	n/a	n/a	n/a	n/a
3548.128	n/a	RECOG_LURE	1774064	n/a	LTP132	ltpFR	3	6	n/a	OFFICER	973	4	n/a	n/a	n/a	n/a	n/a	n/a
3548.83	n/a	RECOG_RESP	1774415	n/a	LTP132	ltpFR	3	6	n/a	OFFICER	973	n/a	n/a	n/a	n/a	n/a	n/a	n/a
3549.716	n/a	RECOG_CONF	1774858	n/a	LTP132	ltpFR	3	6	n/a	OFFICER	973	4	n/a	n/a	n/a	n/a	n/a	n/a
3551.166	n/a	RECOG_TARGET	1775583	n/a	LTP132	ltpFR	3	6	-1	PAD	998	5	-1	n/a	n/a	n/a	n/a	n/a
3551.65	n/a	RECOG_RESP	1775825	n/a	LTP132	ltpFR	3	6	-1	PAD	998	n/a	-1	n/a	n/a	n/a	n/a	n/a
3552.366	n/a	RECOG_CONF	1776183	n/a	LTP132	ltpFR	3	6	-1	PAD	998	5	-1	n/a	n/a	n/a	n/a	n/a
3554.014	n/a	RECOG_LURE	1777007	n/a	LTP132	ltpFR	3	6	n/a	SODA	1341	4	n/a	n/a	n/a	n/a	n/a	n/a
3554.638	n/a	RECOG_RESP	1777319	n/a	LTP132	ltpFR	3	6	n/a	SODA	1341	n/a	n/a	n/a	n/a	n/a	n/a	n/a
3555.32	n/a	RECOG_CONF	1777660	n/a	LTP132	ltpFR	3	6	n/a	SODA	1341	4	n/a	n/a	n/a	n/a	n/a	n/a
3557.076	n/a	RECOG_LURE	1778538	n/a	LTP132	ltpFR	3	6	n/a	WIFE	1609	4	n/a	n/a	n/a	n/a	n/a	n/a
3557.716	n/a	RECOG_RESP	1778858	n/a	LTP132	ltpFR	3	6	n/a	WIFE	1609	n/a	n/a	n/a	n/a	n/a	n/a	n/a
3558.646	n/a	RECOG_CONF	1779323	n/a	LTP132	ltpFR	3	6	n/a	WIFE	1609	4	n/a	n/a	n/a	n/a	n/a	n/a
3560.022	n/a	RECOG_TARGET	1780011	n/a	LTP132	ltpFR	3	6	1	FURNITURE	616	5	0	n/a	n/a	n/a	n/a	n/a
3560.77	n/a	RECOG_RESP	1780385	n/a	LTP132	ltpFR	3	6	1	FURNITURE	616	n/a	0	n/a	n/a	n/a	n/a	n/a
3561.678	n/a	RECOG_CONF	1780839	n/a	LTP132	ltpFR	3	6	1	FURNITURE	616	5	0	n/a	n/a	n/a	n/a	n/a
3564.89	n/a	REC_START	1782445	n/a	LTP132	ltpFR	3	7	n/a	n/a	n/a	n/a	n/a	n/a	n/a	n/a	n/a	n/a
3564.918	n/a	RECOG_TARGET	1782459	n/a	LTP132	ltpFR	3	7	0	RECEIPT	1173	5	0	n/a	n/a	n/a	n/a	n/a
3565.648	n/a	RECOG_RESP	1782824	n/a	LTP132	ltpFR	3	7	0	RECEIPT	1173	n/a	0	n/a	n/a	n/a	n/a	n/a
3566.476	n/a	RECOG_CONF	1783238	n/a	LTP132	ltpFR	3	7	0	RECEIPT	1173	5	0	n/a	n/a	n/a	n/a	n/a
3568.138	n/a	RECOG_LURE	1784069	n/a	LTP132	ltpFR	3	7	n/a	TAG	1429	5	n/a	n/a	n/a	n/a	n/a	n/a
3568.68	n/a	RECOG_RESP	1784340	n/a	LTP132	ltpFR	3	7	n/a	TAG	1429	n/a	n/a	n/a	n/a	n/a	n/a	n/a
3569.384	n/a	RECOG_CONF	1784692	n/a	LTP132	ltpFR	3	7	n/a	TAG	1429	5	n/a	n/a	n/a	n/a	n/a	n/a
3571.202	n/a	RECOG_LURE	1785601	n/a	LTP132	ltpFR	3	7	n/a	GYM	674	4	n/a	n/a	n/a	n/a	n/a	n/a
3572.49	n/a	RECOG_RESP	1786245	n/a	LTP132	ltpFR	3	7	n/a	GYM	674	n/a	n/a	n/a	n/a	n/a	n/a	n/a
3573.194	n/a	RECOG_CONF	1786597	n/a	LTP132	ltpFR	3	7	n/a	GYM	674	4	n/a	n/a	n/a	n/a	n/a	n/a
3574.73	n/a	RECOG_TARGET	1787365	n/a	LTP132	ltpFR	3	7	0	INSTRUCTOR	741	1	1	n/a	n/a	n/a	n/a	n/a
3575.324	n/a	RECOG_RESP_VV	1787662	n/a	LTP132	ltpFR	3	7	0	INSTRUCTOR	741	n/a	1	n/a	n/a	n/a	n/a	n/a
3576.362	n/a	RECOG_RESP	1788181	n/a	LTP132	ltpFR	3	7	0	INSTRUCTOR	741	n/a	1	n/a	n/a	n/a	n/a	n/a
3577.618	n/a	RECOG_CONF	1788809	n/a	LTP132	ltpFR	3	7	0	INSTRUCTOR	741	1	1	n/a	n/a	n/a	n/a	n/a
3579.168	n/a	RECOG_TARGET	1789584	n/a	LTP132	ltpFR	3	7	-1	GALAXY	617	1	-1	n/a	n/a	n/a	n/a	n/a
3580.79	n/a	RECOG_RESP	1790395	n/a	LTP132	ltpFR	3	7	-1	GALAXY	617	n/a	-1	n/a	n/a	n/a	n/a	n/a
3581.696	n/a	RECOG_CONF	1790848	n/a	LTP132	ltpFR	3	7	-1	GALAXY	617	1	-1	n/a	n/a	n/a	n/a	n/a
3583.004	n/a	RECOG_TARGET	1791502	n/a	LTP132	ltpFR	3	7	-1	CRITIC	410	2	-1	n/a	n/a	n/a	n/a	n/a
3584.508	n/a	RECOG_RESP	1792254	n/a	LTP132	ltpFR	3	7	-1	CRITIC	410	n/a	-1	n/a	n/a	n/a	n/a	n/a
3586.036	n/a	RECOG_CONF	1793018	n/a	LTP132	ltpFR	3	7	-1	CRITIC	410	2	-1	n/a	n/a	n/a	n/a	n/a
3587.616	n/a	RECOG_TARGET	1793808	n/a	LTP132	ltpFR	3	7	1	BARN	89	5	0	n/a	n/a	n/a	n/a	n/a
3588.85	n/a	RECOG_RESP	1794425	n/a	LTP132	ltpFR	3	7	1	BARN	89	n/a	0	n/a	n/a	n/a	n/a	n/a
3589.858	n/a	RECOG_CONF	1794929	n/a	LTP132	ltpFR	3	7	1	BARN	89	5	0	n/a	n/a	n/a	n/a	n/a
3591.38	n/a	RECOG_LURE	1795690	n/a	LTP132	ltpFR	3	7	n/a	TROUT	1511	4	n/a	n/a	n/a	n/a	n/a	n/a
3592.152	n/a	RECOG_RESP	1796076	n/a	LTP132	ltpFR	3	7	n/a	TROUT	1511	n/a	n/a	n/a	n/a	n/a	n/a	n/a
3592.922	n/a	RECOG_CONF	1796461	n/a	LTP132	ltpFR	3	7	n/a	TROUT	1511	4	n/a	n/a	n/a	n/a	n/a	n/a
3594.624	n/a	RECOG_LURE	1797312	n/a	LTP132	ltpFR	3	7	n/a	TUB	1514	4	n/a	n/a	n/a	n/a	n/a	n/a
3596.38	n/a	RECOG_RESP	1798190	n/a	LTP132	ltpFR	3	7	n/a	TUB	1514	n/a	n/a	n/a	n/a	n/a	n/a	n/a
3597.372	n/a	RECOG_CONF	1798686	n/a	LTP132	ltpFR	3	7	n/a	TUB	1514	4	n/a	n/a	n/a	n/a	n/a	n/a
3599.012	n/a	RECOG_TARGET	1799506	n/a	LTP132	ltpFR	3	7	1	TOMATO	1476	5	1	n/a	n/a	n/a	n/a	n/a
3599.546	n/a	RECOG_RESP	1799773	n/a	LTP132	ltpFR	3	7	1	TOMATO	1476	n/a	1	n/a	n/a	n/a	n/a	n/a
3600.37	n/a	RECOG_CONF	1800185	n/a	LTP132	ltpFR	3	7	1	TOMATO	1476	5	1	n/a	n/a	n/a	n/a	n/a
3602.15	n/a	RECOG_TARGET	1801075	n/a	LTP132	ltpFR	3	7	-1	PORCUPINE	1107	5	-1	n/a	n/a	n/a	n/a	n/a
3602.682	n/a	RECOG_RESP	1801341	n/a	LTP132	ltpFR	3	7	-1	PORCUPINE	1107	n/a	-1	n/a	n/a	n/a	n/a	n/a
3603.61	n/a	RECOG_CONF	1801805	n/a	LTP132	ltpFR	3	7	-1	PORCUPINE	1107	5	-1	n/a	n/a	n/a	n/a	n/a
3605.322	n/a	RECOG_TARGET	1802661	n/a	LTP132	ltpFR	3	7	-1	ROD	1203	5	-1	n/a	n/a	n/a	n/a	n/a
3605.898	n/a	RECOG_RESP	1802949	n/a	LTP132	ltpFR	3	7	-1	ROD	1203	n/a	-1	n/a	n/a	n/a	n/a	n/a
3606.85	n/a	RECOG_CONF	1803425	n/a	LTP132	ltpFR	3	7	-1	ROD	1203	5	-1	n/a	n/a	n/a	n/a	n/a
3608.352	n/a	RECOG_TARGET	1804176	n/a	LTP132	ltpFR	3	7	0	GHOST	634	5	1	n/a	n/a	n/a	n/a	n/a
3608.922	n/a	RECOG_RESP	1804461	n/a	LTP132	ltpFR	3	7	0	GHOST	634	n/a	1	n/a	n/a	n/a	n/a	n/a
3609.918	n/a	RECOG_CONF	1804959	n/a	LTP132	ltpFR	3	7	0	GHOST	634	5	1	n/a	n/a	n/a	n/a	n/a
3611.456	n/a	RECOG_TARGET	1805728	n/a	LTP132	ltpFR	3	7	-1	CRACKER	398	5	-1	n/a	n/a	n/a	n/a	n/a
3612.072	n/a	RECOG_RESP	1806036	n/a	LTP132	ltpFR	3	7	-1	CRACKER	398	n/a	-1	n/a	n/a	n/a	n/a	n/a
3613.204	n/a	RECOG_CONF	1806602	n/a	LTP132	ltpFR	3	7	-1	CRACKER	398	5	-1	n/a	n/a	n/a	n/a	n/a
3615.218	n/a	RECOG_TARGET	1807609	n/a	LTP132	ltpFR	3	7	0	PROFESSOR	1131	5	1	n/a	n/a	n/a	n/a	n/a
3616.296	n/a	RECOG_RESP	1808148	n/a	LTP132	ltpFR	3	7	0	PROFESSOR	1131	n/a	1	n/a	n/a	n/a	n/a	n/a
3617.274	n/a	RECOG_CONF	1808637	n/a	LTP132	ltpFR	3	7	0	PROFESSOR	1131	5	1	n/a	n/a	n/a	n/a	n/a
3618.864	n/a	RECOG_TARGET	1809432	n/a	LTP132	ltpFR	3	7	1	BURGLAR	200	2	1	n/a	n/a	n/a	n/a	n/a
3619.744	n/a	RECOG_RESP	1809872	n/a	LTP132	ltpFR	3	7	1	BURGLAR	200	n/a	1	n/a	n/a	n/a	n/a	n/a
3621.306	n/a	RECOG_CONF	1810653	n/a	LTP132	ltpFR	3	7	1	BURGLAR	200	2	1	n/a	n/a	n/a	n/a	n/a
3622.91	n/a	RECOG_TARGET	1811455	n/a	LTP132	ltpFR	3	7	1	SEASHORE	1263	5	0	n/a	n/a	n/a	n/a	n/a
3623.552	n/a	RECOG_RESP	1811776	n/a	LTP132	ltpFR	3	7	1	SEASHORE	1263	n/a	0	n/a	n/a	n/a	n/a	n/a
3624.59	n/a	RECOG_CONF	1812295	n/a	LTP132	ltpFR	3	7	1	SEASHORE	1263	5	0	n/a	n/a	n/a	n/a	n/a
3625.964	n/a	RECOG_TARGET	1812982	n/a	LTP132	ltpFR	3	7	1	BARTENDER	92	2	1	n/a	n/a	n/a	n/a	n/a
3626.356	n/a	RECOG_RESP	1813178	n/a	LTP132	ltpFR	3	7	1	BARTENDER	92	n/a	1	n/a	n/a	n/a	n/a	n/a
3628.92	n/a	RECOG_CONF	1814460	n/a	LTP132	ltpFR	3	7	1	BARTENDER	92	2	1	n/a	n/a	n/a	n/a	n/a
3630.46	n/a	RECOG_LURE	1815230	n/a	LTP132	ltpFR	3	7	n/a	LOOP	844	5	n/a	n/a	n/a	n/a	n/a	n/a
3631.216	n/a	RECOG_RESP	1815608	n/a	LTP132	ltpFR	3	7	n/a	LOOP	844	n/a	n/a	n/a	n/a	n/a	n/a	n/a
3632.006	n/a	RECOG_CONF	1816003	n/a	LTP132	ltpFR	3	7	n/a	LOOP	844	5	n/a	n/a	n/a	n/a	n/a	n/a
3633.738	n/a	RECOG_LURE	1816869	n/a	LTP132	ltpFR	3	7	n/a	NURSERY	964	5	n/a	n/a	n/a	n/a	n/a	n/a
3634.396	n/a	RECOG_RESP	1817198	n/a	LTP132	ltpFR	3	7	n/a	NURSERY	964	n/a	n/a	n/a	n/a	n/a	n/a	n/a
3635.306	n/a	RECOG_CONF	1817653	n/a	LTP132	ltpFR	3	7	n/a	NURSERY	964	5	n/a	n/a	n/a	n/a	n/a	n/a
3646.76	n/a	REC_START	1823380	n/a	LTP132	ltpFR	3	8	n/a	n/a	n/a	n/a	n/a	n/a	n/a	n/a	n/a	n/a
3646.79	n/a	RECOG_TARGET	1823395	n/a	LTP132	ltpFR	3	8	-1	SHACK	1273	4	-1	n/a	n/a	n/a	n/a	n/a
3647.672	n/a	RECOG_RESP	1823836	n/a	LTP132	ltpFR	3	8	-1	SHACK	1273	n/a	-1	n/a	n/a	n/a	n/a	n/a
3648.536	n/a	RECOG_CONF	1824268	n/a	LTP132	ltpFR	3	8	-1	SHACK	1273	4	-1	n/a	n/a	n/a	n/a	n/a
3650.078	n/a	RECOG_TARGET	1825039	n/a	LTP132	ltpFR	3	8	1	COB	334	5	0	n/a	n/a	n/a	n/a	n/a
3650.684	n/a	RECOG_RESP	1825342	n/a	LTP132	ltpFR	3	8	1	COB	334	n/a	0	n/a	n/a	n/a	n/a	n/a
3651.356	n/a	RECOG_CONF	1825678	n/a	LTP132	ltpFR	3	8	1	COB	334	5	0	n/a	n/a	n/a	n/a	n/a
3653.0	n/a	RECOG_LURE	1826500	n/a	LTP132	ltpFR	3	8	n/a	YOUTH	1634	4	n/a	n/a	n/a	n/a	n/a	n/a
3653.616	n/a	RECOG_RESP	1826808	n/a	LTP132	ltpFR	3	8	n/a	YOUTH	1634	n/a	n/a	n/a	n/a	n/a	n/a	n/a
3654.546	n/a	RECOG_CONF	1827273	n/a	LTP132	ltpFR	3	8	n/a	YOUTH	1634	4	n/a	n/a	n/a	n/a	n/a	n/a
3656.062	n/a	RECOG_TARGET	1828031	n/a	LTP132	ltpFR	3	8	1	HAMMOCK	681	5	0	n/a	n/a	n/a	n/a	n/a
3656.682	n/a	RECOG_RESP	1828341	n/a	LTP132	ltpFR	3	8	1	HAMMOCK	681	n/a	0	n/a	n/a	n/a	n/a	n/a
3657.398	n/a	RECOG_CONF	1828699	n/a	LTP132	ltpFR	3	8	1	HAMMOCK	681	5	0	n/a	n/a	n/a	n/a	n/a
3659.018	n/a	RECOG_TARGET	1829509	n/a	LTP132	ltpFR	3	8	0	ALBUM	14	5	0	n/a	n/a	n/a	n/a	n/a
3659.596	n/a	RECOG_RESP	1829798	n/a	LTP132	ltpFR	3	8	0	ALBUM	14	n/a	0	n/a	n/a	n/a	n/a	n/a
3660.444	n/a	RECOG_CONF	1830222	n/a	LTP132	ltpFR	3	8	0	ALBUM	14	5	0	n/a	n/a	n/a	n/a	n/a
3661.964	n/a	RECOG_TARGET	1830982	n/a	LTP132	ltpFR	3	8	1	REEF	1177	5	0	n/a	n/a	n/a	n/a	n/a
3662.424	n/a	RECOG_RESP	1831212	n/a	LTP132	ltpFR	3	8	1	REEF	1177	n/a	0	n/a	n/a	n/a	n/a	n/a
3663.256	n/a	RECOG_CONF	1831628	n/a	LTP132	ltpFR	3	8	1	REEF	1177	5	0	n/a	n/a	n/a	n/a	n/a
3664.736	n/a	RECOG_LURE	1832368	n/a	LTP132	ltpFR	3	8	n/a	WINNER	1615	2	n/a	n/a	n/a	n/a	n/a	n/a
3665.364	n/a	RECOG_RESP	1832682	n/a	LTP132	ltpFR	3	8	n/a	WINNER	1615	n/a	n/a	n/a	n/a	n/a	n/a	n/a
3666.414	n/a	RECOG_CONF	1833207	n/a	LTP132	ltpFR	3	8	n/a	WINNER	1615	2	n/a	n/a	n/a	n/a	n/a	n/a
3667.84	n/a	RECOG_LURE	1833920	n/a	LTP132	ltpFR	3	8	n/a	MONEY	908	2	n/a	n/a	n/a	n/a	n/a	n/a
3668.934	n/a	RECOG_RESP	1834467	n/a	LTP132	ltpFR	3	8	n/a	MONEY	908	n/a	n/a	n/a	n/a	n/a	n/a	n/a
3669.82	n/a	RECOG_CONF	1834910	n/a	LTP132	ltpFR	3	8	n/a	MONEY	908	2	n/a	n/a	n/a	n/a	n/a	n/a
